Timestamp,accX,accY,accZ 
1684327303698,1829,-752,3668 
1684327303738,1759,-767,3689 
1684327303779,1794,-916,3589 
1684327303818,1816,-823,3688 
1684327303858,1899,-751,3683 
1684327303898,1766,-834,3658 
1684327303938,1857,-789,3716 
1684327303979,1878,-715,3683 
1684327304018,1655,-784,3639 
1684327304058,1917,-699,3688 
1684327304098,1779,-760,3623 
1684327304138,1932,-741,3539 
1684327304179,1782,-606,3685 
1684327304218,1837,-633,3731 
1684327304258,1875,-588,3612 
1684327304298,1745,-488,3727 
1684327304338,1923,-822,3533 
1684327304379,1852,-579,3692 
1684327304418,1942,-701,3669 
1684327304458,1984,-703,3654 
1684327304498,1620,-675,3694 
1684327304538,1951,-623,3634 
1684327304579,1851,-324,3715 
1684327304618,1877,-553,3652 
1684327304658,1685,-792,3654 
1684327304698,1924,-532,3686 
1684327304738,1851,-780,3586 
1684327304779,1850,-697,3629 
1684327304818,1893,-794,3628 
1684327304858,1770,-803,3658 
1684327304898,1850,-592,3725 
1684327304938,1711,-847,3605 
1684327304979,1805,-557,3803 
1684327305018,1795,-537,3715 
1684327305058,1992,167,3712 
1684327305098,1464,-186,3661 
1684327305139,1740,-624,3631 
1684327305180,1786,-400,3732 
1684327305219,1814,-210,3588 
1684327305259,1869,-202,3684 
1684327305299,1883,-37,3767 
1684327305339,1708,227,3753 
1684327305380,1865,-81,3739 
1684327305419,1872,99,3746 
1684327305459,1859,-31,3711 
1684327305499,1918,225,3735 
1684327305539,1896,-47,3599 
1684327305580,1954,203,3697 
1684327305619,1865,259,3677 
1684327305659,1875,361,3723 
1684327305699,1909,338,3718 
1684327305739,1926,447,3715 
1684327305780,1933,353,3661 
1684327305819,1930,602,3700 
1684327305859,2148,899,3731 
1684327305899,2153,364,3695 
1684327305939,1340,1401,3906 
1684327305980,1185,-1335,3324 
1684327306019,2019,-1097,3752 
1684327306059,1767,-744,3643 
1684327306099,1726,-630,4068 
1684327306139,1915,-407,3760 
1684327306180,1909,-458,3520 
1684327306219,1832,-1009,3739 
1684327306259,1996,-894,3241 
1684327306299,2048,-585,3228 
1684327306340,1987,-1003,3538 
1684327306380,1967,-836,3251 
1684327306419,1917,-1117,3582 
1684327306460,1979,-753,3489 
1684327306500,1734,-912,3683 
1684327306540,1935,-969,3672 
1684327306581,1824,-1208,3988 
1684327306620,1948,-869,3562 
1684327306660,1889,-949,3477 
1684327306700,2003,-1017,3489 
1684327306740,2034,-940,3473 
1684327306781,1864,-717,3512 
1684327306820,1967,-939,3417 
1684327306860,1851,-925,3742 
1684327306900,1911,-1077,3639 
1684327306940,1841,-1042,3487 
1684327306981,1982,-830,3484 
1684327307020,1948,-1040,3689 
1684327307060,1897,-940,3514 
1684327307100,2390,250,2074 
1684327307140,1822,-1009,3477 
1684327307181,2081,-779,3527 
1684327307220,1928,-841,3608 
1684327307260,1932,-840,3594 
1684327307300,1901,-847,3603 
1684327307340,1907,-843,3598 
1684327307381,1911,-836,3601 
1684327307420,1914,-832,3593 
1684327307460,2270,160,2331 
1684327307500,1921,-983,3696 
1684327307540,1841,-993,3538 
1684327307581,2098,-659,3542 
1684327307620,1839,-928,3682 
1684327307660,1942,-789,3469 
1684327307700,1849,-736,3706 
1684327307740,2018,-1060,3567 
1684327307782,1901,-748,3640 
1684327307820,1929,-785,3552 
1684327307860,1907,-890,3625 
1684327307901,1971,-829,3591 
1684327307941,1832,-837,3571 
1684327307982,1984,-841,3573 
1684327308021,1859,-812,3633 
1684327308061,1918,-799,3605 
1684327308101,1902,-869,3596 
1684327308141,1899,-765,3573 
1684327308182,1902,-841,3596 
1684327308221,1898,-866,3563 
1684327308261,1884,-698,3561 
1684327308301,1845,-828,3590 
1684327308341,1787,-962,3596 
1684327308382,1905,-878,3464 
1684327308421,1936,-955,3605 
1684327308461,1937,-768,3599 
1684327308501,1862,-895,3575 
1684327308541,1869,-876,3518 
1684327308582,1883,-1160,3519 
1684327308621,1830,-793,3577 
1684327308661,1943,-955,3621 
1684327308701,1890,-1033,3564 
1684327308741,1914,-943,3593 
1684327308782,1887,-859,3498 
1684327308821,1786,-855,3594 
1684327308861,1908,-983,3588 
1684327308901,1818,-1044,3618 
1684327308941,1881,-767,3521 
1684327308982,1734,-991,3705 
1684327309021,1983,-653,3500 
1684327309061,1894,-981,3638 
1684327309102,1721,-886,3513 
1684327309141,1922,-938,3781 
1684327309182,1932,-1389,3718 
1684327309222,1997,-977,3412 
1684327309261,1879,-917,3580 
1684327309302,1996,-1132,3557 
1684327309342,1888,-865,3418 
1684327309383,1814,-268,3648 
1684327309422,1819,-235,3690 
1684327309462,1823,-347,3494 
1684327309502,1796,-40,3581 
1684327309542,1664,36,3890 
1684327309583,1551,104,4094 
1684327309622,1767,-65,4287 
1684327309662,1790,-472,3774 
1684327309702,1861,-909,3322 
1684327309742,1608,-433,3882 
1684327309783,1767,-313,3628 
1684327309822,1785,-319,3856 
1684327309862,1671,-756,3722 
1684327309902,1694,-596,3635 
1684327309942,1839,-644,3805 
1684327309983,1852,-245,3772 
1684327310022,1712,-294,3762 
1684327310062,1727,-323,3619 
1684327310102,1809,-151,3855 
1684327310142,1508,-179,3815 
1684327310183,1709,20,3798 
1684327310222,1637,-117,3768 
1684327310262,1640,-73,3843 
1684327310302,1707,91,3806 
1684327310342,1755,-98,3772 
1684327310383,1652,105,3806 
1684327310422,1504,-20,3822 
1684327310462,1629,62,3815 
1684327310502,1710,76,3793 
1684327310542,1534,127,3912 
1684327310583,1562,-22,3697 
1684327310622,1287,-75,3823 
1684327310663,1491,-228,3789 
1684327310703,1628,-69,3923 
1684327310743,1888,153,4106 
1684327310784,1968,-517,3575 
1684327310823,1705,-432,3467 
1684327310863,1858,-388,3680 
1684327310903,1773,-524,3649 
1684327310943,1861,-555,3687 
1684327310984,1833,-703,3710 
1684327311023,1800,-636,3773 
1684327311063,1773,-728,3590 
1684327311103,1892,-722,3651 
1684327311143,1767,-984,3570 
1684327311184,1890,-880,3572 
1684327311223,1854,-649,3483 
1684327311263,1789,-1033,3779 
1684327311303,1918,-897,3718 
1684327311343,2016,-965,3937 
1684327311384,2070,-1156,3775 
1684327311423,2029,-1175,3778 
1684327311463,2495,-1544,3575 
1684327311503,2849,-1515,3671 
1684327311543,2823,-298,3568 
1684327311584,2559,-164,3328 
1684327311623,2892,-702,3586 
1684327311663,2442,-704,3133 
1684327311703,2848,-205,2925 
1684327311743,2489,-1034,2974 
1684327311784,2429,188,2644 
1684327311823,1878,107,3495 
1684327311863,1291,728,3409 
1684327311903,973,497,4262 
1684327311943,884,812,3796 
1684327311984,1051,2062,3544 
1684327312023,1035,1133,3779 
1684327312063,554,407,3313 
1684327312104,101,611,3282 
1684327312143,758,415,3786 
1684327312184,855,14,5468 
1684327312224,1278,364,3724 
1684327312264,2127,477,3934 
1684327312304,2437,806,3451 
1684327312344,2613,851,3781 
1684327312385,1248,-134,3941 
1684327312424,936,-1209,4032 
1684327312464,1371,-1244,3897 
1684327312504,1601,-690,3806 
1684327312544,1872,-136,3610 
1684327312585,1711,-561,3855 
1684327312624,1554,-1374,3453 
1684327312664,1624,-1151,3443 
1684327312704,1718,-1319,3428 
1684327312744,1911,-1099,3552 
1684327312785,1974,-1271,3443 
1684327312824,1688,-1588,3563 
1684327312864,1508,-1349,3652 
1684327312904,1449,-1294,3421 
1684327312944,1686,-1422,3667 
1684327312985,1362,-1642,3521 
1684327313024,1559,-1379,3539 
1684327313064,1428,-1777,3440 
1684327313104,1635,-1486,3628 
1684327313144,1367,-1576,3448 
1684327313185,1549,-1051,3700 
1684327313224,1321,-1778,3483 
1684327313264,1382,-1435,3513 
1684327313304,1550,-2447,3148 
1684327313344,1251,-2336,3185 
1684327313385,1379,-2333,3508 
1684327313424,1160,-895,3695 
1684327313464,1268,-1428,4098 
1684327313504,1031,-1555,3787 
1684327313545,1659,-2498,3295 
1684327313585,1382,-2138,3267 
1684327313625,1488,-2098,3684 
1684327313665,2143,-2462,3528 
1684327313705,2056,-1934,3790 
1684327313745,2406,-1244,3502 
1684327313786,1429,-1552,3057 
1684327313825,1071,-1789,3085 
1684327313865,287,-1530,3482 
1684327313905,59,-2334,3396 
1684327313945,-216,-1943,3542 
1684327313986,65,-691,3292 
1684327314025,159,252,4356 
1684327314065,97,70,3799 
1684327314105,525,-87,3629 
1684327314145,450,356,6031 
1684327314186,-296,-931,3792 
1684327314225,269,-1030,4068 
1684327314265,107,-739,4494 
1684327314305,146,-648,4139 
1684327314345,-86,-1487,4164 
1684327314386,11,-1125,3774 
1684327314425,-80,-150,4059 
1684327314465,-379,-536,4175 
1684327314505,-164,-558,4354 
1684327314545,-494,-496,4225 
1684327314586,-443,-891,4080 
1684327314625,-341,-879,4117 
1684327314665,-349,-247,4095 
1684327314705,-109,-282,4221 
1684327314745,-91,-653,4101 
1684327314786,-192,-710,4200 
1684327314825,-134,-38,4318 
1684327314865,-118,-28,4212 
1684327314905,-54,-626,3884 
1684327314945,-57,-793,4061 
1684327314986,187,-434,3954 
1684327315025,229,-124,3989 
1684327315065,-28,-184,4011 
1684327315106,160,-334,3723 
1684327315145,251,-57,3796 
1684327315187,826,198,3740 
1684327315226,628,-366,3856 
1684327315266,429,-1380,3575 
1684327315306,590,-1594,3891 
1684327315346,595,-1156,3864 
1684327315387,751,-899,3925 
1684327315426,687,-1574,4149 
1684327315466,759,-1953,3996 
1684327315506,762,-1687,4184 
1684327315546,612,-1217,4298 
1684327315587,461,-1015,4458 
1684327315626,218,-829,4323 
1684327315666,295,-1031,4257 
1684327315706,298,-1081,3802 
1684327315746,312,-425,3813 
1684327315787,170,1029,3746 
1684327315826,281,1314,4220 
1684327315866,196,777,4170 
1684327315906,128,430,3878 
1684327315946,101,276,3733 
1684327315987,17,944,4323 
1684327316026,20,728,4289 
1684327316066,-99,23,3956 
1684327316106,-35,487,3624 
1684327316146,-94,2055,3512 
1684327316187,-489,2547,3861 
1684327316226,-570,1545,3872 
1684327316266,-669,905,4922 
1684327316306,-446,587,3687 
1684327316346,178,1758,4014 
1684327316387,22,1756,4336 
1684327316426,-646,1183,4375 
1684327316466,-158,673,3636 
1684327316506,6,293,3783 
1684327316547,40,-610,3177 
1684327316587,1221,-1362,3145 
1684327316627,1261,-2439,3260 
1684327316667,1255,-1968,3641 
1684327316707,1464,107,4200 
1684327316747,1428,-533,3502 
1684327316788,113,1072,3609 
1684327316827,1019,-939,3992 
1684327316867,495,-1934,3607 
1684327316907,386,-1941,3621 
1684327316947,298,-734,3866 
1684327316988,579,-1051,3794 
1684327317027,479,-1599,4299 
1684327317067,768,-1615,4041 
1684327317107,1143,-1333,3979 
1684327317147,1770,-632,4133 
1684327317188,2324,604,4475 
1684327317227,2727,392,3904 
1684327317267,2299,-237,3797 
1684327317307,1886,812,3825 
1684327317347,842,430,3542 
1684327317388,1727,-270,4115 
1684327317427,454,-98,3288 
1684327317467,504,-651,3310 
1684327317507,294,-681,3324 
1684327317547,671,-646,4609 
1684327317588,556,-544,5134 
1684327317627,1610,-1225,3770 
1684327317667,1480,-816,3736 
1684327317707,1087,-1194,4071 
1684327317747,1629,-527,4011 
1684327317788,1828,-830,3415 
1684327317827,1898,-1191,3666 
1684327317867,2030,-1080,3840 
1684327317907,1637,-669,3554 
1684327317947,1490,-666,3921 
1684327317989,1468,-914,3798 
1684327318027,1624,-1068,3387 
1684327318067,1457,-956,3949 
1684327318108,1616,-934,3711 
1684327318147,1395,-896,3896 
1684327318189,1198,-1270,3773 
1684327318228,1483,-1063,3758 
1684327318268,1524,-926,3761 
1684327318308,1511,-977,3606 
1684327318348,1562,-913,3733 
1684327318389,1529,-1348,3790 
1684327318428,1305,-1110,3772 
1684327318468,1424,-1143,3704 
1684327318508,1441,-1197,3670 
1684327318548,1394,-1084,3819 
1684327318589,1417,-985,3833 
1684327318628,1421,-1233,3746 
1684327318668,1512,-1216,3705 
1684327318708,1494,-976,3657 
1684327318748,1528,-996,3680 
1684327318789,1446,-983,3838 
1684327318828,1356,-907,3728 
1684327318868,1359,-893,3769 
1684327318908,1446,-716,3797 
1684327318948,1377,-840,3671 
1684327318989,1666,-1102,3756 
1684327319028,1521,-903,3614 
1684327319068,1667,-566,3843 
1684327319108,1787,-676,3745 
1684327319148,1488,-802,3772 
1684327319189,1286,-1174,3905 
1684327319228,1566,-1313,3670 
1684327319268,1433,-1457,3477 
1684327319308,1323,-2080,3542 
1684327319348,1486,-2451,3014 
1684327319389,1559,-2076,2377 
1684327319428,1597,-2850,2599 
1684327319468,1304,-3199,2702 
1684327319508,1031,-3539,2546 
1684327319549,1242,-2752,2563 
1684327319589,1225,-3058,2562 
1684327319629,1123,-3328,2469 
1684327319669,1203,-3028,2168 
1684327319709,1414,-2822,2595 
1684327319749,1112,-3024,2321 
1684327319789,1147,-3424,2170 
1684327319829,1154,-3376,2143 
1684327319869,1031,-3535,1666 
1684327319909,1185,-3660,2224 
1684327319949,1063,-3109,2283 
1684327319989,1107,-3269,2561 
1684327320029,1255,-3318,1817 
1684327320069,1232,-3504,2092 
1684327320109,1404,-2729,2847 
1684327320149,1250,-2534,2816 
1684327320190,1056,-3396,2472 
1684327320229,1260,-3281,2569 
1684327320269,1303,-2344,2607 
1684327320309,1272,-3064,3266 
1684327320349,1045,-3149,2826 
1684327320390,1272,-2613,2654 
1684327320429,1369,-2968,2673 
1684327320469,1397,-2990,2688 
1684327320509,1401,-2413,2881 
1684327320549,1157,-2527,3060 
1684327320590,1151,-2268,3428 
1684327320629,1147,-2057,3400 
1684327320669,1235,-2023,3386 
1684327320709,1718,-1696,3420 
1684327320749,1112,-2501,3274 
1684327320790,1251,-1717,3449 
1684327320829,1463,-1514,3495 
1684327320869,1420,-1926,3361 
1684327320909,1224,-1976,3452 
1684327320949,1480,-1246,3475 
1684327320990,1262,-1570,3592 
1684327321029,1137,-2289,3359 
1684327321069,1313,-1717,3409 
1684327321110,1349,-1687,3466 
1684327321149,1263,-1961,3386 
1684327321190,1184,-2592,3398 
1684327321230,1027,-2163,3347 
1684327321270,1161,-2209,3189 
1684327321310,1448,-2345,2899 
1684327321350,1227,-2738,3010 
1684327321390,1098,-2891,2769 
1684327321430,1292,-2662,3138 
1684327321470,1240,-2380,3053 
1684327321510,1130,-2542,3148 
1684327321550,1310,-2329,3098 
1684327321591,1246,-2375,3113 
1684327321630,1268,-2529,2943 
1684327321670,1328,-2570,2950 
1684327321710,1301,-2623,2886 
1684327321750,1264,-2547,2994 
1684327321791,1326,-2406,3120 
1684327321830,1278,-2741,2971 
1684327321870,1235,-2524,3021 
1684327321910,1314,-2433,3037 
1684327321950,1257,-2442,3039 
1684327321991,1327,-2479,2976 
1684327322030,1257,-2516,3031 
1684327322070,1222,-2530,2986 
1684327322110,1292,-2511,2987 
1684327322150,1308,-2551,3041 
1684327322191,1299,-2401,3047 
1684327322230,1324,-2411,3107 
1684327322270,1255,-2539,3028 
1684327322310,1293,-2552,2996 
1684327322350,1263,-2555,3080 
1684327322391,1256,-2482,3108 
1684327322430,1230,-2448,3080 
1684327322470,1236,-2424,3119 
1684327322510,1252,-2345,2951 
1684327322551,1279,-2474,3077 
1684327322591,1204,-2569,2909 
1684327322631,1199,-2744,3044 
1684327322671,1169,-2646,3034 
1684327322711,1300,-2347,3199 
1684327322751,1214,-2240,3077 
1684327322791,1214,-2117,2966 
1684327322831,1191,-3287,2329 
1684327322871,1026,-3540,2417 
1684327322911,932,-3048,3377 
1684327322951,968,-2511,2682 
1684327322991,1059,-3248,2357 
1684327323031,1322,-3112,2089 
1684327323071,1221,-3076,2510 
1684327323111,953,-3365,2145 
1684327323151,1206,-3307,2317 
1684327323192,966,-3666,2226 
1684327323231,887,-3502,2051 
1684327323271,1284,-3314,2088 
1684327323311,1109,-3151,1884 
1684327323351,1109,-3626,1567 
1684327323392,1042,-3629,1940 
1684327323431,1067,-3130,2571 
1684327323471,840,-3717,1752 
1684327323511,872,-4141,1286 
1684327323551,1235,-3784,1499 
1684327323592,1294,-3165,1986 
1684327323631,1297,-3061,2200 
1684327323671,1027,-3257,2080 
1684327323711,1083,-2927,2587 
1684327323751,928,-2956,2668 
1684327323792,1058,-2994,2578 
1684327323831,1009,-3344,2140 
1684327323871,855,-3868,2317 
1684327323911,940,-3258,1971 
1684327323951,1254,-3105,2147 
1684327323992,805,-3620,2029 
1684327324031,994,-3697,1693 
1684327324071,1039,-3597,1820 
1684327324112,920,-3627,1750 
1684327324151,998,-3480,1947 
1684327324192,974,-3506,1946 
1684327324232,962,-3622,1796 
1684327324272,1013,-3443,2143 
1684327324312,928,-3254,2126 
1684327324352,1011,-3476,2140 
1684327324392,942,-3490,2049 
1684327324432,974,-3374,2087 
1684327324472,1006,-3428,2145 
1684327324512,953,-3441,2068 
1684327324552,952,-3487,2171 
1684327324593,980,-3322,2158 
1684327324632,971,-3366,2096 
1684327324672,970,-3489,2193 
1684327324712,805,-3294,2375 
1684327324752,975,-3293,2314 
1684327324793,1196,-3073,2509 
1684327324832,864,-2891,2502 
1684327324872,1247,-2950,2689 
1684327324912,1108,-2973,2964 
1684327324952,712,-3309,2798 
1684327324993,930,-3113,2818 
1684327325032,1270,-2334,2742 
1684327325072,1113,-2647,3023 
1684327325112,878,-2632,3212 
1684327325152,1184,-2340,2996 
1684327325193,1256,-3078,2853 
1684327325232,1080,-2429,3416 
1684327325272,1187,-2156,3276 
1684327325312,1128,-2104,3588 
1684327325352,1420,-2124,3127 
1684327325393,1305,-2359,3153 
1684327325432,1644,-1537,2986 
1684327325472,1680,-1337,3405 
1684327325512,1326,-2215,3206 
1684327325552,1401,-2623,2834 
1684327325593,1429,-2707,3098 
1684327325632,1282,-2513,2881 
1684327325673,1326,-2562,3061 
1684327325712,1239,-2601,3145 
1684327325752,1408,-2387,2987 
1684327325793,1310,-2589,3085 
1684327325833,1393,-2349,3022 
1684327325873,1348,-2229,3147 
1684327325913,1345,-2258,3153 
1684327325953,1287,-2405,3199 
1684327325993,1341,-2475,3147 
1684327326033,1341,-2356,3126 
1684327326073,1368,-2335,2999 
1684327326113,1267,-2541,3047 
1684327326153,1228,-2582,3058 
1684327326194,1313,-2584,2996 
1684327326233,1283,-2577,2944 
1684327326273,1367,-2566,2903 
1684327326313,1326,-2705,2870 
1684327326353,1305,-2508,2832 
1684327326394,1278,-2623,2879 
1684327326433,1213,-2711,2900 
1684327326473,1145,-2958,2864 
1684327326513,1271,-2762,2810 
1684327326553,1399,-2663,2893 
1684327326594,1111,-2682,2891 
1684327326633,1325,-2558,3000 
1684327326673,1299,-2655,2912 
1684327326713,1215,-2409,2962 
1684327326753,1291,-2494,3125 
1684327326794,1032,-2892,2875 
1684327326833,1300,-2638,2744 
1684327326873,1351,-2548,2947 
1684327326913,1223,-2625,2960 
1684327326953,1231,-2597,2990 
1684327326994,1309,-2533,2913 
1684327327033,1341,-2541,2924 
1684327327073,1285,-2698,2915 
1684327327114,1240,-2672,2965 
1684327327153,1235,-2557,2990 
1684327327194,1238,-2555,3028 
1684327327234,1206,-2417,3046 
1684327327274,1475,-2425,2942 
1684327327314,1080,-2597,3007 
1684327327354,1266,-2711,3028 
1684327327394,1124,-2614,3013 
1684327327434,1316,-2552,2948 
1684327327474,1218,-2511,3001 
1684327327514,1308,-2468,2915 
1684327327554,1154,-2651,3035 
1684327327595,1232,-2553,2984 
1684327327634,1223,-2522,3099 
1684327327674,1246,-2568,3007 
1684327327714,1200,-2536,3066 
1684327327754,1246,-2553,2992 
1684327327795,1248,-2564,2973 
1684327327834,1227,-2535,2989 
1684327327874,1231,-2605,2996 
1684327327914,1219,-2590,2990 
1684327327954,1221,-2538,3007 
1684327327995,1214,-2468,3041 
1684327328034,1217,-2545,3034 
1684327328074,1207,-2528,3030 
1684327328114,1201,-2618,2988 
1684327328154,1217,-2642,2989 
1684327328195,1169,-2541,3036 
1684327328234,1222,-2525,3011 
1684327328274,1233,-2552,2956 
1684327328314,1247,-2622,3038 
1684327328354,1222,-2580,2991 
1684327328395,1221,-2530,2989 
1684327328434,1200,-2532,3008 
1684327328474,1213,-2563,3017 
1684327328514,1209,-2561,2998 
1684327328555,1240,-2540,3023 
1684327328595,1163,-2614,2990 
1684327328634,1234,-2541,3014 
1684327328675,1216,-2568,3010 
1684327328715,1264,-2506,3021 
1684327328755,1092,-2676,3055 
1684327328795,1303,-2583,2964 
1684327328835,1151,-2497,3045 
1684327328875,1192,-2581,2943 
1684327328915,1209,-2546,3037 
1684327328955,1164,-2568,2975 
1684327328995,1240,-2570,3025 
1684327329035,1176,-2581,2957 
1684327329075,1200,-2584,3000 
1684327329115,1198,-2575,2994 
1684327329155,1194,-2552,3002 
1684327329196,1270,-2551,2982 
1684327329235,1174,-2598,2990 
1684327329275,1192,-2633,2980 
1684327329315,1184,-2561,3027 
1684327329355,1209,-2592,2975 
1684327329396,1200,-2591,3038 
1684327329435,1180,-2598,2972 
1684327329475,1245,-2649,2936 
1684327329515,1190,-2531,2974 
1684327329555,1205,-2569,3047 
1684327329596,1145,-2580,3014 
1684327329635,1254,-2563,2951 
1684327329675,1174,-2668,2980 
1684327329715,1216,-2606,2891 
1684327329755,1156,-2608,2978 
1684327329796,1178,-2692,2937 
1684327329835,1207,-2576,2956 
1684327329875,1208,-2598,3036 
1684327329915,1211,-2676,2922 
1684327329955,1193,-2610,2952 
1684327329996,1194,-2638,2925 
1684327330035,1206,-2619,2921 
1684327330075,1202,-2651,2930 
1684327330116,1194,-2678,2923 
1684327330155,1233,-2674,2939 
1684327330196,1239,-2623,2948 
1684327330236,1169,-2674,2954 
1684327330276,1214,-2704,2927 
1684327330316,1243,-2596,2973 
1684327330356,1223,-2684,2927 
1684327330396,1238,-2610,2937 
1684327330436,1240,-2650,2861 
1684327330476,1201,-2691,2940 
1684327330516,1200,-2609,2922 
1684327330556,1236,-2632,2966 
1684327330597,1230,-2670,2958 
1684327330636,1246,-2650,2903 
1684327330676,1189,-2677,2989 
1684327330716,1252,-2677,2910 
1684327330756,1229,-2652,2944 
1684327330797,1221,-2665,2895 
1684327330836,1196,-2674,2996 
1684327330876,1224,-2606,2910 
1684327330916,1224,-2635,2937 
1684327330956,1243,-2574,2923 
1684327330997,1240,-2613,2934 
1684327331036,1240,-2722,2863 
1684327331076,1253,-2620,2928 
1684327331116,1257,-2593,2958 
1684327331156,1219,-2633,2921 
1684327331197,1225,-2655,2957 
1684327331236,1249,-2628,2905 
1684327331276,1211,-2670,2983 
1684327331316,1262,-2660,2932 
1684327331356,1224,-2712,2926 
1684327331397,1221,-2566,2976 
1684327331436,1359,-2547,2890 
1684327331476,1250,-2413,3061 
1684327331516,1292,-2343,3156 
1684327331556,1325,-2253,3207 
1684327331597,1203,-2300,3274 
1684327331636,1243,-2493,3178 
1684327331677,1339,-2129,3328 
1684327331716,1384,-1856,3268 
1684327331757,1307,-2218,3301 
1684327331797,1266,-2231,3219 
1684327331836,1350,-2178,3164 
1684327331877,1350,-2229,3155 
1684327331917,1305,-2459,3201 
1684327331957,1277,-2441,3150 
1684327331997,1233,-2312,3228 
1684327332037,1339,-2280,3187 
1684327332077,1268,-2105,3340 
1684327332117,1339,-2123,3295 
1684327332157,1340,-2109,3301 
1684327332197,1338,-2118,3234 
1684327332237,1352,-2089,3157 
1684327332277,1256,-2381,3117 
1684327332317,1226,-2443,3192 
1684327332357,1212,-2685,2989 
1684327332398,1264,-2871,2769 
1684327332437,1294,-2865,2664 
1684327332477,1320,-2826,2796 
1684327332517,1303,-2672,2892 
1684327332557,1244,-2534,2970 
1684327332598,1254,-2534,3003 
1684327332637,1375,-2248,3139 
1684327332677,1380,-1945,3252 
1684327332717,1377,-1964,3388 
1684327332757,1302,-1993,3430 
1684327332798,1411,-1741,3307 
1684327332837,1283,-2366,3371 
1684327332877,1280,-2382,3091 
1684327332917,1496,-2156,3174 
1684327332957,1314,-2269,3210 
1684327332998,1248,-2385,3223 
1684327333037,1332,-2178,3253 
1684327333077,1363,-2160,3264 
1684327333118,1352,-2177,3187 
1684327333157,1356,-2271,3250 
1684327333198,1290,-2250,3204 
1684327333238,1248,-2308,3232 
1684327333277,1299,-2237,3176 
1684327333317,1334,-2176,3291 
1684327333358,1354,-2245,3168 
1684327333398,1338,-2146,3238 
1684327333438,1300,-2173,3248 
1684327333478,1285,-2290,3233 
1684327333518,1231,-2390,3171 
1684327333558,1255,-2482,3142 
1684327333598,1261,-2399,3138 
1684327333638,1306,-2347,3187 
1684327333678,1286,-2282,3191 
1684327333718,1291,-2219,3242 
1684327333758,1289,-2324,3193 
1684327333798,1276,-2301,3182 
1684327333838,1370,-2198,3242 
1684327333878,1150,-2384,3185 
1684327333918,1329,-2291,3188 
1684327333958,1301,-2248,3179 
1684327333999,1263,-2365,3133 
1684327334038,1266,-2397,3155 
1684327334078,1319,-2274,3169 
1684327334118,1278,-2252,3212 
1684327334158,1260,-2341,3157 
1684327334199,1306,-2369,3181 
1684327334238,1270,-2279,3163 
1684327334278,1297,-2289,3216 
1684327334318,1268,-2285,3173 
1684327334358,1331,-2289,3154 
1684327334399,1277,-2341,3176 
1684327334438,1312,-2302,3195 
1684327334478,1297,-2289,3175 
1684327334518,1281,-2338,3210 
1684327334558,1328,-2283,3156 
1684327334599,1272,-2249,3179 
1684327334638,1232,-2323,3215 
1684327334678,1276,-2282,3216 
1684327334718,1303,-2283,3141 
1684327334758,1279,-2341,3172 
1684327334799,1312,-2250,3203 
1684327334838,1300,-2262,3199 
1684327334878,1301,-2252,3185 
1684327334919,1270,-2297,3219 
1684327334958,1300,-2299,3209 
1684327334999,1275,-2280,3188 
1684327335039,1301,-2271,3186 
1684327335078,1298,-2259,3199 
1684327335119,1242,-2310,3170 
1684327335159,1308,-2241,3222 
1684327335199,1321,-2343,3185 
1684327335239,1270,-2278,3182 
1684327335279,1268,-2287,3207 
1684327335319,1272,-2270,3202 
1684327335359,1275,-2246,3238 
1684327335400,1295,-2302,3186 
1684327335439,1329,-2263,3182 
1684327335479,1309,-2232,3212 
1684327335519,1262,-2349,3219 
1684327335559,1317,-2218,3221 
1684327335600,1285,-2225,3212 
1684327335639,1326,-2261,3176 
1684327335679,1254,-2337,3196 
1684327335719,1308,-2293,3170 
1684327335759,1278,-2272,3205 
1684327335800,1286,-2329,3202 
1684327335839,1330,-2263,3178 
1684327335879,1317,-2242,3187 
1684327335919,1258,-2239,3217 
1684327335959,1231,-2357,3234 
1684327336000,1145,-2467,3220 
1684327336039,1293,-2210,3120 
1684327336079,1306,-2281,3171 
1684327336119,1292,-2322,3131 
1684327336159,1252,-2369,3162 
1684327336200,1243,-2312,3174 
1684327336239,1270,-2260,3207 
1684327336279,1283,-2277,3189 
1684327336319,1247,-2317,3199 
1684327336360,1243,-2367,3175 
1684327336400,1261,-2416,3155 
1684327336439,1259,-2333,3151 
1684327336480,1279,-2339,3126 
1684327336520,1229,-2287,3208 
1684327336560,1291,-2306,3204 
1684327336600,1219,-2278,3183 
1684327336640,1290,-2222,3257 
1684327336680,1154,-2389,3256 
1684327336720,1281,-2253,3170 
1684327336760,1304,-2181,3225 
1684327336800,1226,-2386,3132 
1684327336840,1257,-2350,3158 
1684327336880,1249,-2290,3233 
1684327336920,1278,-2306,3186 
1684327336960,1261,-2277,3228 
1684327337000,1245,-2343,3182 
1684327337040,1262,-2302,3164 
1684327337080,1234,-2350,3197 
1684327337120,1257,-2323,3154 
1684327337160,1248,-2296,3206 
1684327337201,1246,-2338,3177 
1684327337240,1277,-2322,3195 
1684327337280,1228,-2267,3179 
1684327337320,1274,-2244,3226 
1684327337360,1260,-2302,3219 
1684327337401,1268,-2308,3184 
1684327337440,1211,-2361,3181 
1684327337480,1263,-2287,3190 
1684327337520,1259,-2341,3195 
1684327337560,1247,-2329,3159 
1684327337601,1315,-2255,3196 
1684327337640,1217,-2356,3225 
1684327337680,1277,-2327,3139 
1684327337720,1223,-2315,3213 
1684327337760,1262,-2291,3182 
1684327337801,1281,-2304,3264 
1684327337840,1273,-2271,3194 
1684327337880,1320,-2131,3208 
1684327337921,1355,-2103,3302 
1684327337960,1175,-2376,3282 
1684327338001,1312,-2265,3165 
1684327338041,1329,-2223,3197 
1684327338081,1285,-2312,3146 
1684327338121,1292,-2284,3191 
1684327338161,1293,-2242,3181 
1684327338201,1279,-2240,3256 
1684327338241,1287,-2189,3261 
1684327338281,1311,-2232,3217 
1684327338321,1296,-2232,3250 
1684327338361,1330,-2284,3218 
1684327338402,1262,-2246,3218 
1684327338441,1331,-2232,3244 
1684327338481,1277,-2264,3176 
1684327338521,1314,-2264,3207 
1684327338561,1311,-2305,3174 
1684327338602,1312,-2255,3219 
1684327338641,1267,-2198,3191 
1684327338681,1290,-2253,3271 
1684327338721,1305,-2255,3196 
1684327338761,1290,-2269,3213 
1684327338802,1291,-2283,3184 
1684327338841,1274,-2211,3240 
1684327338881,1279,-2273,3203 
1684327338921,1296,-2249,3237 
1684327338961,1233,-2222,3236 
1684327339002,1295,-2232,3284 
1684327339041,1340,-2072,3200 
1684327339081,1216,-2324,3282 
1684327339121,1316,-2247,3201 
1684327339161,1378,-2084,3264 
1684327339202,1242,-2283,3206 
1684327339241,1335,-2270,3205 
1684327339281,1245,-2219,3231 
1684327339321,1296,-2263,3210 
1684327339361,1279,-2246,3233 
1684327339402,1261,-2167,3210 
1684327339441,1293,-2244,3199 
1684327339482,1307,-2257,3207 
1684327339521,1252,-2217,3243 
1684327339561,1269,-2232,3228 
1684327339602,1282,-2239,3265 
1684327339641,1302,-2269,3214 
1684327339682,1262,-2264,3236 
1684327339722,1229,-2172,3242 
1684327339762,1320,-2199,3252 
1684327339802,1280,-2272,3230 
1684327339842,1292,-2110,3274 
1684327339882,1383,-2317,3695 
1684327339922,1240,-2179,3042 
1684327339962,1230,-2241,3353 
1684327340002,1407,-2183,3112 
1684327340042,1053,-2316,3221 
1684327340082,1368,-2193,3182 
1684327340122,1231,-2209,3239 
1684327340162,1330,-2298,3221 
1684327340203,1240,-2305,3244 
1684327340242,1289,-2192,3148 
1684327340282,1290,-2151,3098 
1684327340322,1211,-2369,3188 
1684327340362,1055,-2818,3101 
1684327340403,982,-2907,2826 
1684327340442,1250,-3044,2596 
1684327340482,1163,-3030,2544 
1684327340522,1181,-2873,2633 
1684327340562,1165,-2987,2630 
1684327340603,1053,-2963,2699 
1684327340642,1159,-2922,2688 
1684327340682,1122,-2975,2631 
1684327340722,1123,-2973,2668 
1684327340762,1147,-2897,2712 
1684327340803,1138,-2914,2687 
1684327340842,1158,-2904,2723 
1684327340882,1114,-2778,2832 
1684327340922,1191,-2908,2656 
1684327340962,1107,-2943,2671 
1684327341003,1159,-2737,2818 
1684327341043,1182,-2829,2814 
1684327341082,1154,-2877,2755 
1684327341122,1196,-2842,2759 
1684327341163,1139,-2832,2775 
1684327341203,1162,-2873,2809 
1684327341243,1150,-2795,2800 
1684327341283,1208,-2790,2715 
1684327341323,1226,-2794,2776 
1684327341363,1148,-2847,2793 
1684327341403,1170,-2818,2829 
1684327341443,1167,-2692,2980 
1684327341483,1284,-2594,2906 
1684327341523,1288,-2482,2985 
1684327341563,1221,-2547,2988 
1684327341603,1285,-2518,2970 
1684327341643,1249,-2427,3118 
1684327341683,1289,-2307,3120 
1684327341723,1272,-2466,3066 
1684327341763,1301,-2214,3098 
1684327341804,1170,-2750,3066 
1684327341843,1282,-2388,2983 
1684327341883,1320,-2397,3091 
1684327341923,1222,-2459,3084 
1684327341963,1311,-2507,3150 
1684327342004,1217,-2535,3017 
1684327342043,1343,-2489,3101 
1684327342083,1196,-2481,3190 
1684327342123,1404,-2243,2981 
1684327342163,1309,-2452,3076 
1684327342204,1329,-2222,3239 
1684327342243,1324,-2360,3070 
1684327342283,1280,-2634,3024 
1684327342323,1214,-2636,3077 
1684327342363,1225,-2476,2997 
1684327342404,1264,-2493,3103 
1684327342443,1267,-2477,3054 
1684327342483,1306,-2434,3035 
1684327342523,1270,-2369,3115 
1684327342563,1279,-2466,3030 
1684327342604,1240,-2495,2997 
1684327342643,1223,-2354,3191 
1684327342683,1179,-2411,3143 
1684327342724,1314,-2470,3103 
1684327342763,1208,-2424,3121 
1684327342804,1231,-2321,3054 
1684327342844,1278,-2450,3187 
1684327342884,1159,-2451,3096 
1684327342924,1274,-2511,3089 
1684327342964,1188,-2406,2994 
1684327343004,1252,-2487,3088 
1684327343044,1201,-2480,3040 
1684327343084,1202,-2316,3081 
1684327343124,1278,-2673,3211 
1684327343164,921,-2813,3036 
1684327343205,1175,-2772,2765 
1684327343244,1524,-2549,2745 
1684327343284,1193,-2382,3176 
1684327343324,777,-2289,3285 
1684327343364,1176,-2679,3146 
1684327343405,1402,-2812,2864 
1684327343444,1224,-2664,2814 
1684327343484,1236,-2724,2827 
1684327343524,1149,-2511,2917 
1684327343564,1075,-2138,2911 
1684327343605,1420,-2062,3155 
1684327343644,1369,-2407,3023 
1684327343684,801,-2878,3049 
1684327343724,980,-2844,3158 
1684327343764,998,-2794,2911 
1684327343805,1179,-2922,2859 
1684327343844,1221,-2738,2840 
1684327343884,1072,-2911,2780 
1684327343924,1112,-2769,2826 
1684327343964,1209,-2613,2834 
1684327344005,1134,-2622,3007 
1684327344044,1221,-2598,2996 
1684327344084,1154,-2649,2927 
1684327344124,1122,-2789,2816 
1684327344164,1171,-2814,2810 
1684327344205,1166,-2673,2803 
1684327344244,1162,-2580,2939 
1684327344285,1160,-2606,2919 
1684327344324,1158,-2640,2954 
1684327344364,950,-2979,2940 
1684327344405,899,-2967,2873 
1684327344444,1043,-2922,2767 
1684327344484,1030,-2769,2735 
1684327344525,1175,-2765,2817 
1684327344565,977,-2665,2905 
1684327344605,981,-2909,2963 
1684327344645,883,-2818,2915 
1684327344685,1090,-2772,2766 
1684327344725,1079,-2829,2766 
1684327344765,976,-2918,2783 
1684327344805,1011,-2989,2827 
1684327344845,929,-3001,2833 
1684327344885,1032,-2785,2699 
1684327344925,1126,-2802,2906 
1684327344965,834,-2741,2972 
1684327345006,959,-2932,2951 
1684327345045,1050,-2871,3038 
1684327345085,880,-2910,2805 
1684327345125,1122,-2622,3059 
1684327345165,947,-2874,3124 
1684327345206,937,-3458,2516 
1684327345245,1606,-2962,2199 
1684327345285,1399,-2666,3137 
1684327345325,1109,-2236,3354 
1684327345365,1540,-1921,3127 
1684327345406,1746,-1367,3228 
1684327345445,1915,-903,2839 
1684327345485,1658,-1171,2850 
1684327345525,1233,-432,3488 
1684327345565,822,379,3604 
1684327345606,246,1125,4478 
1684327345645,-111,867,4099 
1684327345685,-187,1604,4224 
1684327345725,-86,2332,4949 
1684327345765,-908,212,5106 
1684327345806,936,304,3671 
1684327345845,160,-856,4172 
1684327345885,440,-1059,3812 
1684327345925,585,806,4464 
1684327345966,446,-529,4251 
1684327346006,388,-717,3776 
1684327346046,491,-1335,4150 
1684327346086,353,-111,3917 
1684327346126,141,-1263,4251 
1684327346166,347,-958,3873 
1684327346206,108,-1122,4000 
1684327346246,401,-1482,3669 
1684327346286,576,-1380,3851 
1684327346326,523,-655,3853 
1684327346366,-197,-1448,5022 
1684327346406,-110,-1080,4166 
1684327346446,-213,-1442,4002 
1684327346486,146,-708,4161 
1684327346526,325,-1683,3772 
1684327346566,356,-2332,3661 
1684327346607,384,-1418,3857 
1684327346646,-39,-1016,3939 
1684327346686,117,-761,4113 
1684327346726,-25,-1112,3979 
1684327346766,253,-2828,3429 
1684327346807,174,-1751,3809 
1684327346846,75,-1065,3839 
1684327346886,144,-1395,3917 
1684327346926,83,-1329,3919 
1684327346966,92,-1251,3966 
1684327347007,-214,-1314,3885 
1684327347046,-227,-967,3980 
1684327347086,173,-1654,3967 
1684327347126,253,-1994,3447 
1684327347166,410,-3582,3007 
1684327347207,51,-2013,3612 
1684327347246,211,-1229,3834 
1684327347286,204,-2062,3817 
1684327347326,-17,-1603,3754 
1684327347366,137,-1722,3673 
1684327347407,340,-2114,3468 
1684327347446,495,-2195,3568 
1684327347486,319,-1883,3587 
1684327347527,222,-2306,3391 
1684327347566,176,-2453,3515 
1684327347607,205,-1795,3599 
1684327347647,358,-2231,3510 
1684327347687,433,-1965,3577 
1684327347727,-10,-1798,3697 
1684327347767,412,-1702,3686 
1684327347807,417,-1790,3707 
1684327347847,157,-1966,3723 
1684327347887,244,-1551,3730 
1684327347927,390,-1896,3725 
1684327347967,335,-1679,3740 
1684327348008,411,-1818,3613 
1684327348047,403,-1937,3727 
1684327348087,348,-1836,3651 
1684327348127,346,-1883,3673 
1684327348167,350,-1666,3858 
1684327348208,337,-1615,3730 
1684327348247,336,-2282,3777 
1684327348287,-170,-3270,3886 
1684327348327,97,-3708,5699 
1684327348367,-96,-3101,6175 
1684327348408,145,-1883,2865 
1684327348447,-394,-1145,3334 
1684327348487,595,-863,2162 
1684327348527,1549,437,16 
1684327348567,2785,1775,-71 
1684327348608,1655,2682,3994 
1684327348647,-569,808,4732 
1684327348687,1916,-3438,6920 
1684327348727,2388,-2526,3583 
1684327348767,2533,-556,3359 
1684327348808,385,-1247,2958 
1684327348847,1892,-2579,3620 
1684327348887,799,-2035,3577 
1684327348927,777,-1927,3297 
1684327348968,1151,-2273,2472 
1684327349008,1261,-3915,2510 
1684327349047,25,-3917,2809 
1684327349088,300,-3282,2432 
1684327349128,1111,-2458,2880 
1684327349168,655,-3390,2898 
1684327349208,476,-3176,1963 
1684327349248,1044,-2465,3033 
1684327349288,513,-2944,3044 
1684327349328,226,-3887,2439 
1684327349368,875,-2803,2763 
1684327349408,983,-2562,2892 
1684327349448,551,-3140,2625 
1684327349488,716,-2991,2698 
1684327349528,666,-3029,2780 
1684327349568,562,-3099,2733 
1684327349608,695,-3194,2542 
1684327349648,774,-2826,2686 
1684327349688,777,-2848,2772 
1684327349728,635,-3051,2700 
1684327349768,728,-3167,2674 
1684327349809,653,-3222,2603 
1684327349848,679,-3053,2730 
1684327349888,648,-2876,2860 
1684327349928,816,-2848,2792 
1684327349968,685,-3002,2703 
1684327350009,725,-2961,2722 
1684327350048,728,-3054,2728 
1684327350088,649,-3176,2592 
1684327350128,715,-3021,2781 
1684327350168,713,-2899,2776 
1684327350209,698,-3084,2719 
1684327350248,725,-3036,2767 
1684327350288,715,-3018,2757 
1684327350328,743,-2967,2683 
1684327350368,626,-3133,2667 
1684327350409,704,-3004,2704 
1684327350448,694,-2978,2682 
1684327350488,749,-3021,2798 
1684327350529,666,-3047,2682 
1684327350568,716,-3073,2700 
1684327350609,745,-2928,2700 
1684327350649,729,-2935,2768 
1684327350689,719,-3034,2790 
1684327350729,682,-3031,2692 
1684327350769,723,-3043,2725 
1684327350809,673,-3059,2640 
1684327350849,757,-3025,2732 
1684327350889,744,-2922,2782 
1684327350929,751,-3022,2630 
1684327350969,605,-3118,2702 
1684327351010,753,-2971,2665 
1684327351049,761,-2898,2800 
1684327351089,701,-3005,2686 
1684327351129,731,-3005,2697 
1684327351169,695,-3027,2702 
1684327351210,729,-3024,2732 
1684327351249,718,-3022,2664 
1684327351289,701,-3030,2745 
1684327351329,754,-3006,2732 
1684327351369,660,-3079,2738 
1684327351410,713,-3013,2718 
1684327351449,757,-2997,2790 
1684327351489,697,-3045,2726 
1684327351529,753,-2963,2739 
1684327351569,686,-2988,2757 
1684327351610,686,-3001,2706 
1684327351649,731,-2998,2724 
1684327351689,748,-3003,2718 
1684327351729,755,-3004,2754 
1684327351769,698,-2949,2774 
1684327351810,733,-3001,2784 
1684327351849,717,-3009,2774 
1684327351889,710,-3023,2784 
1684327351929,747,-2947,2750 
1684327351969,716,-2951,2791 
1684327352010,681,-3010,2755 
1684327352049,734,-3005,2781 
1684327352090,698,-2994,2737 
1684327352129,760,-2999,2752 
1684327352169,680,-2970,2778 
1684327352210,697,-2954,2720 
1684327352250,728,-2999,2781 
1684327352290,730,-2982,2735 
1684327352330,759,-2986,2768 
1684327352370,692,-2966,2728 
1684327352410,723,-2976,2795 
1684327352450,681,-3006,2753 
1684327352490,716,-2992,2728 
1684327352530,743,-2939,2755 
1684327352570,722,-2999,2765 
1684327352611,719,-2976,2751 
1684327352650,694,-2970,2762 
1684327352690,716,-2965,2723 
1684327352730,747,-2948,2772 
1684327352770,699,-2975,2727 
1684327352811,758,-2990,2770 
1684327352850,689,-2969,2779 
1684327352890,755,-2914,2751 
1684327352930,705,-2989,2761 
1684327352970,693,-2953,2726 
1684327353011,745,-3002,2783 
1684327353050,683,-3039,2742 
1684327353090,724,-2923,2786 
1684327353130,684,-2980,2765 
1684327353170,725,-2944,2700 
1684327353211,756,-3007,2784 
1684327353250,686,-2985,2710 
1684327353290,770,-2927,2804 
1684327353330,688,-2969,2733 
1684327353370,730,-2972,2780 
1684327353411,723,-2984,2763 
1684327353450,740,-2938,2770 
1684327353490,701,-2982,2784 
1684327353530,730,-2935,2774 
1684327353570,709,-2945,2763 
1684327353611,735,-2981,2742 
1684327353651,761,-2952,2765 
1684327353690,752,-2967,2739 
1684327353731,712,-3028,2793 
1684327353771,744,-2902,2771 
1684327353811,698,-2946,2801 
1684327353851,774,-2968,2722 
1684327353891,700,-2981,2765 
1684327353931,751,-2985,2779 
1684327353971,708,-2952,2777 
1684327354011,748,-2945,2756 
1684327354051,771,-3003,2732 
1684327354091,747,-2996,2714 
1684327354131,705,-3120,2794 
1684327354171,693,-2823,2866 
1684327354211,667,-2945,2806 
1684327354251,681,-3030,2760 
1684327354291,706,-3015,2726 
1684327354331,735,-3002,2795 
1684327354371,657,-2982,2768 
1684327354412,742,-2926,2773 
1684327354451,672,-2990,2783 
1684327354491,704,-3049,2727 
1684327354531,688,-3040,2664 
1684327354571,745,-3057,2721 
1684327354612,659,-3072,2721 
1684327354651,703,-2948,2704 
1684327354691,719,-3089,2712 
1684327354731,616,-3023,2675 
1684327354771,736,-3026,2749 
1684327354812,697,-2934,2738 
1684327354851,653,-3076,2719 
1684327354891,676,-3127,2682 
1684327354931,692,-2979,2780 
1684327354971,679,-2943,2777 
1684327355012,763,-2789,2725 
1684327355051,747,-3096,2667 
1684327355091,639,-3170,2604 
1684327355131,686,-3054,2747 
1684327355171,745,-2907,2798 
1684327355212,661,-2991,2761 
1684327355251,741,-3039,2867 
1684327355291,753,-2881,2660 
1684327355332,675,-3133,2784 
1684327355371,680,-2976,2671 
1684327355412,746,-3003,2727 
1684327355452,737,-3022,2751 
1684327355492,682,-2982,2680 
1684327355532,724,-2993,2759 
1684327355572,678,-2999,2714 
1684327355612,781,-2959,2830 
1684327355652,665,-3061,2703 
1684327355692,775,-2987,2710 
1684327355732,742,-2976,2741 
1684327355772,651,-3053,2718 
1684327355813,757,-2977,2697 
1684327355852,738,-2946,2794 
1684327355892,727,-3016,2711 
1684327355932,724,-3005,2756 
1684327355972,725,-3020,2737 
1684327356013,711,-3052,2700 
1684327356052,755,-2941,2765 
1684327356092,705,-2994,2720 
1684327356132,740,-2983,2741 
1684327356172,697,-3008,2725 
1684327356213,755,-2963,2755 
1684327356252,756,-3021,2761 
1684327356292,714,-2970,2762 
1684327356332,753,-2978,2757 
1684327356372,742,-2977,2779 
1684327356413,733,-2994,2763 
1684327356452,760,-2992,2751 
1684327356492,719,-2925,2751 
1684327356532,773,-2972,2807 
1684327356572,731,-2971,2724 
1684327356613,797,-2915,2719 
1684327356652,675,-3007,2757 
1684327356692,735,-2933,2765 
1684327356732,782,-2857,2817 
1684327356773,731,-2974,2819 
1684327356813,723,-2979,2759 
1684327356852,774,-2898,2816 
1684327356893,680,-2968,2832 
1684327356933,749,-2941,2737 
1684327356973,733,-2888,2841 
1684327357013,733,-2964,2796 
1684327357053,794,-2891,2766 
1684327357093,686,-2991,2794 
1684327357133,666,-2964,2700 
1684327357173,796,-2886,2838 
1684327357213,652,-2988,2830 
1684327357253,715,-2876,2770 
1684327357293,687,-3102,2898 
1684327357333,622,-2899,2885 
1684327357373,948,-2403,3134 
1684327357414,614,-2925,2937 
1684327357453,632,-3286,2675 
1684327357493,784,-2817,2953 
1684327357533,733,-2676,2930 
1684327357573,826,-2950,2851 
1684327357614,640,-3070,2760 
1684327357653,770,-2813,2865 
1684327357693,743,-2854,2880 
1684327357733,657,-2864,2889 
1684327357773,832,-2797,2946 
1684327357814,741,-2716,2993 
1684327357853,805,-2671,2968 
1684327357893,722,-2804,2881 
1684327357933,776,-2810,2926 
1684327357973,637,-2936,2910 
1684327358014,763,-2917,2809 
1684327358053,750,-2815,2838 
1684327358093,736,-3030,2923 
1684327358133,695,-2705,2661 
1684327358173,824,-3043,2884 
1684327358214,541,-3109,2568 
1684327358253,906,-2845,2771 
1684327358293,688,-2812,2826 
1684327358334,662,-3059,2762 
1684327358373,738,-2918,2839 
1684327358414,751,-2906,2738 
1684327358454,719,-3027,2836 
1684327358494,682,-2835,2841 
1684327358534,815,-2926,2856 
1684327358574,660,-3009,2794 
1684327358614,818,-2879,2823 
1684327358654,693,-2921,2808 
1684327358694,800,-2950,2885 
1684327358734,706,-2929,2772 
1684327358774,771,-2928,2889 
1684327358815,661,-2885,2830 
1684327358854,909,-2883,2816 
1684327358894,875,-2773,2891 
1684327358934,747,-2802,2772 
1684327358974,758,-3004,2857 
1684327359015,720,-2743,2778 
1684327359054,792,-2981,2987 
1684327359094,743,-2626,2817 
1684327359134,749,-2924,2979 
1684327359174,718,-3030,2787 
1684327359215,767,-2857,2766 
1684327359254,706,-2852,2883 
1684327359294,805,-2922,2964 
1684327359334,696,-2793,2810 
1684327359374,742,-2975,2897 
1684327359415,788,-2887,2755 
1684327359454,645,-2898,2960 
1684327359494,792,-2772,2908 
1684327359534,741,-2841,2835 
1684327359574,780,-2955,2834 
1684327359615,730,-2893,2828 
1684327359654,699,-2903,2862 
1684327359694,737,-2788,2935 
1684327359734,725,-2727,2973 
1684327359774,829,-2897,2841 
1684327359815,701,-2788,2845 
1684327359854,813,-2926,2921 
1684327359894,588,-3220,2836 
1684327359934,850,-2858,2904 
1684327359974,843,-2504,3108 
1684327360015,930,-2482,2808 
1684327360055,1058,-2797,2994 
1684327360095,701,-2914,2980 
1684327360135,928,-2762,2896 
1684327360175,1046,-2677,2790 
1684327360215,935,-2763,2746 
1684327360255,1067,-2810,2608 
1684327360295,821,-3111,2657 
1684327360335,868,-3273,2632 
1684327360375,849,-3103,2777 
1684327360415,838,-2920,2795 
1684327360455,869,-2902,2700 
1684327360495,893,-2891,2761 
1684327360535,906,-2987,2803 
1684327360575,891,-2797,2798 
1684327360616,915,-2871,2792 
1684327360655,816,-2895,2820 
1684327360695,876,-3060,2796 
1684327360735,786,-2997,2721 
1684327360775,842,-3014,2746 
1684327360816,835,-2906,2689 
1684327360855,889,-3057,2740 
1684327360895,832,-2966,2776 
1684327360935,827,-2931,2833 
1684327360975,873,-2896,2774 
1684327361016,815,-2938,2798 
1684327361055,803,-2953,2736 
1684327361095,857,-2980,2695 
1684327361135,896,-2988,2661 
1684327361175,795,-3019,2837 
1684327361216,746,-2844,2834 
1684327361255,913,-3085,2730 
1684327361295,787,-2975,2685 
1684327361335,792,-2916,2773 
1684327361375,853,-2942,2735 
1684327361416,848,-2962,2727 
1684327361456,884,-2944,2767 
1684327361495,742,-2940,2774 
1684327361535,829,-2998,2719 
1684327361576,839,-2935,2736 
1684327361616,818,-2946,2778 
1684327361656,814,-2938,2789 
1684327361696,757,-2954,2774 
1684327361736,889,-2914,2791 
1684327361776,745,-2947,2782 
1684327361816,878,-2920,2778 
1684327361856,834,-2975,2755 
1684327361896,869,-2990,2707 
1684327361936,796,-2895,2794 
1684327361976,884,-2865,2829 
1684327362017,695,-2816,2853 
1684327362056,818,-2887,2875 
1684327362096,755,-2953,2851 
1684327362136,808,-2811,2827 
1684327362176,880,-2730,2897 
1684327362217,833,-2762,2952 
1684327362256,784,-2802,2975 
1684327362296,787,-2816,2903 
1684327362336,765,-2740,2930 
1684327362376,854,-2811,2881 
1684327362417,834,-2841,2928 
1684327362456,786,-2815,2898 
1684327362496,762,-2764,2898 
1684327362536,807,-2883,2893 
1684327362576,849,-2935,2703 
1684327362617,767,-2983,2874 
1684327362656,677,-2880,2864 
1684327362696,845,-2880,2683 
1684327362736,819,-3088,2704 
1684327362776,653,-3074,2739 
1684327362817,865,-2894,2882 
1684327362856,608,-2856,2978 
1684327362896,763,-2912,2863 
1684327362936,659,-3214,2708 
1684327362976,816,-2706,2535 
1684327363017,1039,-2604,3065 
1684327363056,609,-3238,2720 
1684327363096,774,-2648,2897 
1684327363137,812,-2521,3136 
1684327363177,324,-3234,2890 
1684327363217,743,-3003,2730 
1684327363257,992,-2610,2938 
1684327363297,680,-2695,2926 
1684327363337,725,-2929,2850 
1684327363377,676,-2851,3013 
1684327363417,650,-2947,2836 
1684327363457,801,-2782,2916 
1684327363497,759,-2845,2984 
1684327363537,591,-2878,2909 
1684327363577,748,-2747,2974 
1684327363618,690,-2720,2908 
1684327363657,746,-2869,2980 
1684327363697,749,-2835,2868 
1684327363737,675,-2846,2855 
1684327363777,714,-2841,2865 
1684327363818,688,-2872,2845 
1684327363857,697,-2678,2934 
1684327363897,737,-2831,3003 
1684327363937,666,-2926,2875 
1684327363977,747,-2735,2909 
1684327364018,710,-2795,2947 
1684327364057,690,-2786,2880 
1684327364097,700,-2845,2963 
1684327364137,696,-2836,2911 
1684327364177,705,-2778,3035 
1684327364218,735,-2835,2876 
1684327364257,687,-2979,2857 
1684327364297,679,-2815,2832 
1684327364337,724,-2751,2959 
1684327364377,674,-2877,2858 
1684327364418,691,-2914,2897 
1684327364458,701,-2760,2889 
1684327364497,715,-2896,2910 
1684327364537,654,-2887,2886 
1684327364578,655,-2812,2879 
1684327364618,722,-2889,2907 
1684327364658,644,-2868,2933 
1684327364698,693,-2821,2889 
1684327364738,740,-2769,2957 
1684327364778,676,-2839,2890 
1684327364818,709,-2866,2976 
1684327364858,689,-2873,2902 
1684327364898,611,-2902,2874 
1684327364938,775,-2798,2899 
1684327364978,672,-2731,3018 
1684327365018,738,-2905,2862 
1684327365058,686,-2835,2933 
1684327365098,729,-2786,2909 
1684327365138,720,-2847,2966 
1684327365178,661,-2850,2913 
1684327365219,753,-2804,2971 
1684327365258,681,-2841,2943 
1684327365298,749,-2848,2857 
1684327365338,701,-2806,2928 
1684327365378,744,-2763,3045 
1684327365419,696,-2829,2905 
1684327365458,695,-2804,2944 
1684327365498,729,-2809,3027 
1684327365538,689,-2848,2917 
1684327365578,774,-2744,2918 
1684327365619,650,-2853,2873 
1684327365658,750,-2814,2884 
1684327365698,650,-2797,2987 
1684327365738,733,-2842,2870 
1684327365778,736,-2745,2970 
1684327365819,680,-2845,2958 
1684327365858,743,-2780,2876 
1684327365898,649,-2851,2930 
1684327365938,742,-2761,2883 
1684327365978,777,-2704,2985 
1684327366019,677,-2774,3023 
1684327366058,716,-2840,2876 
1684327366098,680,-2810,2996 
1684327366138,735,-2873,2883 
1684327366178,691,-2777,2945 
1684327366219,748,-2782,2924 
1684327366259,694,-2699,3084 
1684327366298,671,-2957,2867 
1684327366339,716,-2821,2879 
1684327366379,702,-2768,3023 
1684327366419,712,-2861,2946 
1684327366459,693,-2783,2911 
1684327366499,731,-2797,2902 
1684327366539,588,-2885,2926 
1684327366579,703,-2802,2967 
1684327366620,719,-2713,2951 
1684327366659,690,-2927,2873 
1684327366699,780,-2811,2926 
1684327366739,619,-2807,2951 
1684327366779,630,-2939,2884 
1684327366820,731,-2776,2931 
1684327366859,680,-2771,2976 
1684327366899,639,-2858,2881 
1684327366939,723,-2831,2894 
1684327366979,753,-2840,2931 
1684327367020,734,-2793,2821 
1684327367059,676,-2839,2987 
1684327367099,622,-2848,2880 
1684327367139,845,-2780,2910 
1684327367179,669,-2635,3051 
1684327367220,698,-2871,2838 
1684327367259,692,-2911,2858 
1684327367299,668,-2866,3076 
1684327367339,725,-2797,2834 
1684327367379,635,-2964,2800 
1684327367420,770,-2841,2894 
1684327367459,758,-2713,2893 
1684327367499,767,-2824,2822 
1684327367539,730,-3076,2722 
1684327367579,636,-3078,2766 
1684327367620,877,-2864,2797 
1684327367659,765,-2863,2765 
1684327367700,695,-3052,2923 
1684327367739,643,-3020,2754 
1684327367779,849,-2895,2711 
1684327367820,733,-2988,2706 
1684327367859,624,-3140,2734 
1684327367900,769,-3030,2701 
1684327367940,810,-2958,2742 
1684327367980,687,-3054,2709 
1684327368020,774,-2968,2680 
1684327368060,682,-3070,2719 
1684327368100,762,-3080,2601 
1684327368140,730,-3040,2755 
1684327368180,745,-3005,2687 
1684327368221,748,-2976,2730 
1684327368260,706,-3072,2692 
1684327368300,799,-3050,2704 
1684327368340,733,-2975,2693 
1684327368380,761,-3013,2747 
1684327368421,710,-3005,2687 
1684327368460,779,-2986,2690 
1684327368500,736,-2989,2849 
1684327368540,730,-2995,2669 
1684327368580,781,-2949,2797 
1684327368621,732,-2927,2695 
1684327368660,851,-3037,2678 
1684327368700,713,-2940,2828 
1684327368740,715,-2959,2785 
1684327368780,738,-2892,2851 
1684327368821,752,-2930,2771 
1684327368860,780,-2962,2714 
1684327368900,735,-3076,2625 
1684327368940,762,-3021,2773 
1684327368980,656,-2977,2823 
1684327369021,778,-2988,2700 
1684327369060,752,-2953,2708 
1684327369100,722,-2992,2736 
1684327369141,742,-3035,2761 
1684327369180,724,-2994,2687 
1684327369221,765,-3011,2788 
1684327369261,686,-2954,2772 
1684327369301,762,-3003,2735 
1684327369341,671,-2993,2782 
1684327369381,744,-3048,2694 
1684327369421,708,-2973,2727 
1684327369461,728,-2967,2742 
1684327369501,719,-2994,2772 
1684327369541,731,-2963,2777 
1684327369581,715,-2979,2727 
1684327369622,716,-3022,2729 
1684327369661,695,-3051,2730 
1684327369701,766,-2995,2708 
1684327369741,726,-3061,2797 
1684327369781,643,-2999,2797 
1684327369822,725,-3047,2738 
1684327369861,613,-2940,2695 
1684327369901,722,-2946,2727 
1684327369941,689,-3023,2787 
1684327369981,703,-3034,2740 
1684327370022,688,-3039,2718 
1684327370061,687,-2963,2748 
1684327370101,692,-2949,2782 
1684327370141,692,-3041,2734 
1684327370181,707,-3048,2702 
1684327370222,700,-2980,2814 
1684327370261,694,-2986,2721 
1684327370301,693,-3036,2763 
1684327370341,729,-2975,2745 
1684327370381,696,-3001,2748 
1684327370422,666,-3000,2785 
1684327370461,697,-2931,2723 
1684327370501,701,-2910,2763 
1684327370541,646,-3088,2784 
1684327370581,688,-3029,2701 
1684327370622,704,-2889,2838 
1684327370661,675,-2995,2775 
1684327370702,677,-3030,2775 
1684327370741,685,-3022,2733 
1684327370781,708,-2945,2744 
1684327370822,665,-2949,2797 
1684327370862,663,-3054,2724 
1684327370902,664,-2992,2785 
1684327370942,713,-2947,2761 
1684327370982,641,-3028,2718 
1684327371022,685,-3052,2803 
1684327371062,703,-2986,2755 
1684327371102,690,-3045,2733 
1684327371142,696,-3030,2733 
1684327371182,649,-3019,2776 
1684327371222,726,-3021,2707 
1684327371262,682,-2959,2783 
1684327371302,740,-2943,2853 
1684327371342,688,-2882,2808 
1684327371382,769,-2911,2880 
1684327371423,684,-2971,2822 
1684327371462,728,-2767,2874 
1684327371502,820,-2527,3026 
1684327371542,686,-2928,2854 
1684327371582,759,-2790,2958 
1684327371623,753,-2925,2833 
1684327371662,739,-2917,2861 
1684327371702,777,-2811,2796 
1684327371742,741,-2674,2983 
1684327371782,687,-2977,2890 
1684327371823,760,-2829,2833 
1684327371862,726,-2873,2844 
1684327371902,724,-2880,2859 
1684327371942,777,-2808,2894 
1684327371982,707,-2830,2955 
1684327372023,743,-2854,2852 
1684327372062,790,-2877,2808 
1684327372102,690,-2979,2757 
1684327372143,721,-2945,2880 
1684327372182,657,-2912,2864 
1684327372223,686,-2823,2867 
1684327372263,722,-2759,2942 
1684327372302,737,-2969,2785 
1684327372342,723,-3013,2828 
1684327372383,699,-2878,2829 
1684327372423,749,-2759,2889 
1684327372463,747,-2797,2924 
1684327372503,760,-2929,2760 
1684327372543,679,-2956,2831 
1684327372583,701,-2883,2814 
1684327372623,710,-2852,2855 
1684327372663,695,-2922,2904 
1684327372703,722,-2893,2988 
1684327372743,697,-2785,2821 
1684327372783,698,-2820,2921 
1684327372823,648,-3088,2820 
1684327372863,813,-2825,2782 
1684327372903,706,-2880,2880 
1684327372943,654,-2919,2823 
1684327372983,723,-2857,2821 
1684327373024,737,-2820,2897 
1684327373063,684,-2860,2917 
1684327373103,738,-2919,2757 
1684327373143,758,-2889,2913 
1684327373183,744,-2803,2902 
1684327373224,680,-2963,2873 
1684327373263,724,-2870,2811 
1684327373303,741,-2841,2871 
1684327373343,714,-2926,2870 
1684327373383,747,-2852,2884 
1684327373424,633,-2935,2826 
1684327373463,752,-2901,2799 
1684327373503,745,-2855,2992 
1684327373543,689,-2876,2828 
1684327373583,714,-2981,2811 
1684327373624,692,-2807,2825 
1684327373663,711,-3014,2841 
1684327373703,729,-2897,2772 
1684327373743,761,-2780,2930 
1684327373783,687,-2909,2801 
1684327373824,737,-2929,2804 
1684327373863,698,-2867,2903 
1684327373903,741,-2960,2814 
1684327373944,736,-2846,2843 
1684327373984,728,-2864,2864 
1684327374024,730,-2939,2833 
1684327374064,714,-2892,2859 
1684327374104,732,-2893,2884 
1684327374144,726,-2947,2809 
1684327374184,717,-2895,2813 
1684327374224,701,-2789,2874 
1684327374264,716,-2996,2839 
1684327374304,703,-2908,2810 
1684327374344,748,-2833,2820 
1684327374384,695,-2956,2844 
1684327374425,727,-2963,2834 
1684327374464,672,-3026,2884 
1684327374504,707,-2959,2780 
1684327374544,749,-2856,2825 
1684327374584,722,-2957,2860 
1684327374625,655,-2920,2857 
1684327374664,751,-2907,2791 
1684327374704,706,-2925,2815 
1684327374744,695,-2893,2815 
1684327374784,696,-2917,2820 
1684327374825,708,-2906,2826 
1684327374864,717,-2865,2833 
1684327374904,724,-2943,2843 
1684327374944,686,-2938,2842 
1684327374984,715,-2878,2819 
1684327375025,706,-2927,2780 
1684327375064,705,-2878,2842 
1684327375104,737,-2840,2791 
1684327375144,724,-2947,2832 
1684327375184,742,-2899,2857 
1684327375225,686,-2933,2805 
1684327375265,713,-2925,2836 
1684327375304,712,-2905,2841 
1684327375344,725,-2893,2842 
1684327375385,704,-2926,2826 
1684327375425,699,-2943,2814 
1684327375464,696,-2884,2832 
1684327375505,730,-2890,2834 
1684327375545,686,-2939,2822 
1684327375585,719,-2947,2795 
1684327375625,666,-2910,2835 
1684327375665,733,-2932,2797 
1684327375705,702,-2895,2816 
1684327375746,722,-2975,2833 
1684327375786,682,-2916,2817 
1684327375826,708,-2906,2826 
1684327375866,701,-2940,2831 
1684327375906,680,-2964,2786 
1684327375946,732,-2910,2871 
1684327375986,711,-2955,2788 
1684327376027,703,-2906,2792 
1684327376066,664,-2934,2856 
1684327376106,721,-2955,2799 
1684327376146,735,-2903,2858 
1684327376186,704,-2923,2794 
1684327376227,735,-2961,2832 
1684327376266,666,-2931,2884 
1684327376306,679,-2984,2827 
1684327376346,861,-2830,2808 
1684327376386,699,-2875,2797 
1684327376427,764,-2931,2841 
1684327376466,619,-2961,2867 
1684327376506,707,-2803,2898 
1684327376546,799,-2820,2864 
1684327376586,727,-2863,2858 
1684327376627,685,-3023,2799 
1684327376666,651,-3103,2790 
1684327376706,674,-2884,2803 
1684327376746,680,-2883,2861 
1684327376786,715,-2937,2842 
1684327376827,676,-2969,2803 
1684327376866,689,-2937,2748 
1684327376906,674,-3023,2796 
1684327376947,668,-2937,2791 
1684327376986,722,-2950,2844 
1684327377027,729,-2896,2820 
1684327377067,736,-2916,2813 
1684327377107,703,-2973,2768 
1684327377147,630,-2967,2812 
1684327377187,692,-2898,2828 
1684327377227,665,-2916,2826 
1684327377267,730,-2912,2798 
1684327377307,694,-2912,2850 
1684327377347,712,-2885,2856 
1684327377387,688,-2881,2839 
1684327377427,769,-2985,2772 
1684327377467,649,-2976,2758 
1684327377507,738,-2928,2798 
1684327377547,670,-2937,2834 
1684327377587,701,-2904,2864 
1684327377628,703,-2913,2826 
1684327377667,740,-2926,2833 
1684327377707,657,-2909,2826 
1684327377747,708,-2927,2802 
1684327377787,675,-2907,2857 
1684327377828,678,-2943,2791 
1684327377867,716,-2909,2848 
1684327377907,686,-2918,2834 
1684327377947,744,-2902,2849 
1684327377987,708,-2893,2850 
1684327378028,689,-2921,2826 
1684327378067,736,-2926,2791 
1684327378107,677,-2928,2857 
1684327378147,675,-2912,2788 
1684327378187,698,-2929,2861 
1684327378228,674,-2962,2824 
1684327378267,706,-2896,2826 
1684327378307,665,-2979,2796 
1684327378347,737,-2916,2827 
1684327378387,713,-2934,2892 
1684327378428,702,-2976,2815 
1684327378467,689,-2925,2886 
1684327378508,731,-2909,2767 
1684327378547,714,-2880,2849 
1684327378587,660,-2997,2806 
1684327378628,696,-2897,2751 
1684327378667,693,-2913,2832 
1684327378707,694,-2980,2802 
1684327378748,705,-2932,2790 
1684327378787,659,-2929,2830 
1684327378828,699,-2953,2795 
1684327378868,681,-2973,2846 
1684327378908,687,-2890,2827 
1684327378948,669,-2908,2823 
1684327378988,714,-2967,2850 
1684327379028,705,-2912,2803 
1684327379068,631,-2941,2834 
1684327379108,732,-2936,2814 
1684327379148,690,-2918,2869 
1684327379188,681,-2925,2776 
1684327379229,654,-2955,2839 
1684327379268,699,-2948,2836 
1684327379308,685,-2927,2831 
1684327379348,701,-2900,2837 
1684327379388,662,-2940,2754 
1684327379429,714,-2980,2821 
1684327379468,683,-2915,2815 
1684327379508,740,-2913,2854 
1684327379548,688,-2949,2781 
1684327379588,706,-2875,2839 
1684327379629,707,-2899,2870 
1684327379668,720,-2933,2821 
1684327379708,598,-2963,2886 
1684327379748,681,-2874,2880 
1684327379788,789,-2930,2860 
1684327379829,638,-2936,2819 
1684327379868,680,-2968,2826 
1684327379908,669,-2931,2843 
1684327379948,713,-2892,2814 
1684327379988,729,-2888,2849 
1684327380029,670,-2895,2817 
1684327380069,669,-2950,2845 
1684327380108,718,-2918,2803 
1684327380148,679,-2886,2849 
1684327380189,682,-2939,2857 
1684327380229,678,-2932,2833 
1684327380269,690,-2960,2813 
1684327380309,666,-2915,2861 
1684327380349,694,-2905,2828 
1684327380389,703,-2886,2845 
1684327380429,683,-2943,2859 
1684327380469,673,-2903,2808 
1684327380509,687,-2906,2844 
1684327380549,666,-2940,2815 
1684327380589,665,-2945,2861 
1684327380629,678,-2891,2835 
1684327380669,709,-2913,2830 
1684327380709,705,-2889,2835 
1684327380749,700,-2941,2827 
1684327380789,691,-2875,2828 
1684327380830,697,-2872,2865 
1684327380869,709,-2945,2865 
1684327380909,705,-2875,2817 
1684327380949,695,-2924,2830 
1684327380989,667,-2956,2835 
1684327381030,705,-2917,2849 
1684327381069,672,-2900,2854 
1684327381109,719,-2919,2831 
1684327381149,696,-2891,2830 
1684327381189,642,-2911,2852 
1684327381230,691,-2902,2851 
1684327381269,713,-2901,2809 
1684327381309,665,-2806,2833 
1684327381349,708,-2956,2812 
1684327381389,666,-2962,2859 
1684327381430,712,-2818,2860 
1684327381469,659,-2975,2868 
1684327381509,679,-2950,2836 
1684327381549,693,-2881,2848 
1684327381589,732,-2937,2805 
1684327381630,653,-2909,2822 
1684327381669,720,-2894,2833 
1684327381709,654,-2913,2840 
1684327381750,677,-2949,2790 
1684327381790,684,-2883,2821 
1684327381830,688,-2897,2767 
1684327381870,720,-2916,2836 
1684327381910,675,-2912,2850 
1684327381950,663,-2928,2871 
1684327381990,712,-2899,2784 
1684327382030,674,-2940,2788 
1684327382070,725,-2950,2830 
1684327382110,663,-2910,2860 
1684327382150,696,-2899,2813 
1684327382190,670,-2914,2828 
1684327382231,703,-2954,2870 
1684327382270,686,-2946,2822 
1684327382310,702,-2899,2810 
1684327382350,668,-2945,2842 
1684327382390,691,-2932,2800 
1684327382431,721,-2955,2819 
1684327382470,669,-2961,2813 
1684327382510,708,-2924,2830 
1684327382550,699,-2893,2827 
1684327382590,674,-2943,2859 
1684327382631,681,-2925,2805 
1684327382670,687,-2910,2789 
1684327382710,703,-2921,2834 
1684327382750,651,-3003,2804 
1684327382790,712,-2861,2802 
1684327382831,703,-2884,2855 
1684327382870,651,-2925,2837 
1684327382910,714,-2922,2803 
1684327382950,718,-2882,2851 
1684327382990,663,-2959,2800 
1684327383031,683,-2859,2853 
1684327383070,674,-2897,2860 
1684327383110,715,-2935,2806 
1684327383150,694,-2964,2842 
1684327383191,747,-2905,2871 
1684327383231,691,-2895,2870 
1684327383270,665,-2936,2818 
1684327383311,701,-2905,2808 
1684327383351,711,-2894,2835 
1684327383391,667,-2955,2810 
1684327383431,666,-2932,2838 
1684327383471,668,-2932,2809 
1684327383511,709,-2891,2837 
1684327383551,713,-2907,2822 
1684327383591,689,-2929,2831 
1684327383631,649,-2922,2830 
1684327383671,681,-2924,2822 
1684327383711,705,-2934,2881 
1684327383751,686,-2871,2813 
1684327383791,701,-2915,2834 
1684327383831,672,-3020,2820 
1684327383871,690,-2904,2813 
1684327383911,693,-2936,2878 
1684327383951,660,-2931,2737 
1684327383991,700,-2912,2828 
1684327384032,682,-2921,2820 
1684327384071,664,-2899,2812 
1684327384111,685,-2871,2833 
1684327384151,697,-2943,2808 
1684327384191,673,-2932,2821 
1684327384232,702,-2901,2834 
1684327384271,684,-2949,2831 
1684327384311,702,-2936,2810 
1684327384351,733,-2885,2795 
1684327384391,667,-2893,2832 
1684327384432,740,-2869,2829 
1684327384471,669,-2965,2838 
1684327384511,690,-2958,2813 
1684327384551,704,-2896,2839 
1684327384591,684,-2908,2829 
1684327384632,682,-2962,2829 
1684327384671,714,-2879,2836 
1684327384711,705,-2911,2829 
1684327384751,702,-2918,2839 
1684327384791,670,-2929,2828 
1684327384832,680,-2971,2805 
1684327384872,709,-2871,2836 
1684327384911,662,-2926,2839 
1684327384952,705,-2905,2829 
1684327384992,667,-2927,2816 
1684327385032,697,-2935,2825 
1684327385072,692,-2890,2842 
1684327385112,700,-2924,2841 
1684327385152,710,-2919,2848 
1684327385192,692,-2834,2873 
1684327385232,682,-2934,2848 
1684327385272,702,-2954,2806 
1684327385312,726,-2902,2854 
1684327385352,701,-2894,2856 
1684327385392,724,-2924,2849 
1684327385432,700,-2900,2847 
1684327385472,676,-2916,2854 
1684327385512,687,-2901,2803 
1684327385552,686,-2870,2877 
1684327385592,687,-2902,2839 
1684327385633,678,-2931,2824 
1684327385672,685,-2898,2826 
1684327385712,694,-2875,2838 
1684327385752,657,-2955,2868 
1684327385792,704,-2952,2813 
1684327385833,645,-2883,2883 
1684327385872,683,-2909,2850 
1684327385912,704,-2861,2865 
1684327385952,664,-2931,2835 
1684327385992,677,-2882,2873 
1684327386033,691,-2859,2892 
1684327386072,673,-2926,2827 
1684327386112,695,-2963,2817 
1684327386152,676,-2859,2852 
1684327386193,710,-2895,2849 
1684327386233,696,-2900,2866 
1684327386272,702,-2931,2857 
1684327386313,704,-2887,2842 
1684327386352,689,-2919,2855 
1684327386392,688,-2919,2847 
1684327386433,714,-2823,2927 
1684327386472,725,-2968,2834 
1684327386513,667,-2981,2850 
1684327386553,736,-2836,2875 
1684327386593,702,-2855,2865 
1684327386633,713,-2979,2797 
1684327386673,685,-2856,2853 
1684327386713,680,-2907,2870 
1684327386753,674,-2887,2834 
1684327386793,697,-2841,2835 
1684327386833,701,-2919,2861 
1684327386873,690,-2939,2832 
1684327386913,749,-2824,2965 
1684327386953,625,-2917,2827 
1684327386993,775,-2942,2685 
1684327387034,696,-2878,2839 
1684327387073,676,-2993,2800 
1684327387113,712,-2787,2897 
1684327387153,617,-2974,2846 
1684327387193,699,-2919,2798 
1684327387234,712,-2852,2846 
1684327387273,644,-3022,2805 
1684327387313,719,-2954,2845 
1684327387353,660,-2813,2831 
1684327387393,668,-2948,2837 
1684327387434,632,-2981,2802 
1684327387473,711,-2913,2819 
1684327387513,706,-2863,2843 
1684327387553,712,-2945,2845 
1684327387593,678,-2953,2798 
1684327387634,699,-2886,2853 
1684327387673,675,-2901,2856 
1684327387713,691,-2958,2798 
1684327387752,715,-2904,2841 
1684327387792,688,-2940,2875 
1684327387833,697,-2961,2829 
1684327387872,690,-2954,2850 
1684327387912,696,-2922,2786 
1684327387952,656,-3001,2845 
1684327387993,705,-2921,2827 
1684327388033,735,-2794,2896 
1684327388072,689,-2891,2847 
1684327388113,691,-2984,2794 
1684327388153,725,-2847,2849 
1684327388193,694,-2941,2815 
1684327388234,671,-2939,2844 
1684327388273,721,-2877,2890 
1684327388313,668,-2974,2807 
1684327388353,723,-2934,2793 
1684327388393,643,-2801,2932 
1684327388433,755,-2970,2776 
1684327388473,629,-2995,2785 
1684327388513,703,-2957,2863 
1684327388553,623,-2701,3027 
1684327388593,814,-2972,2675 
1684327388634,584,-2935,2877 
1684327388673,719,-2893,2841 
1684327388713,724,-2856,2846 
1684327388753,627,-3044,2780 
1684327388793,768,-2838,2829 
1684327388834,632,-2920,2837 
1684327388873,702,-2954,2815 
1684327388913,731,-2857,2805 
1684327388953,602,-2939,2898 
1684327388993,715,-2992,2755 
1684327389034,701,-2867,2817 
1684327389073,679,-2971,2825 
1684327389113,668,-2893,2851 
1684327389153,705,-2839,2837 
1684327389193,641,-3036,2797 
1684327389234,666,-2929,2841 
1684327389273,728,-2849,2854 
1684327389313,645,-2978,2803 
1684327389353,687,-2949,2796 
1684327389393,646,-2872,2874 
1684327389434,714,-2909,2808 
1684327389473,613,-2987,2786 
1684327389513,708,-2886,2815 
1684327389554,746,-2843,2865 
1684327389593,627,-2994,2783 
1684327389634,714,-2942,2795 
1684327389674,643,-2788,2870 
1684327389714,692,-2972,2729 
1684327389754,731,-2934,2797 
1684327389794,654,-2929,2831 
1684327389834,721,-2909,2820 
1684327389874,663,-2888,2876 
1684327389914,743,-2930,2780 
1684327389954,702,-2891,2813 
1684327389994,698,-3038,2803 
1684327390035,625,-2943,2854 
1684327390074,789,-2795,2827 
1684327390114,684,-2987,2840 
1684327390154,631,-3036,2732 
1684327390194,746,-2854,2802 
1684327390235,697,-2945,2889 
1684327390274,637,-2860,2829 
1684327390314,794,-2987,2790 
1684327390354,591,-2965,2825 
1684327390394,753,-2906,2823 
1684327390435,626,-2975,2754 
1684327390474,696,-2848,2910 
1684327390514,754,-2886,2851 
1684327390554,677,-2976,2846 
1684327390594,751,-2934,2687 
1684327390635,729,-2932,2867 
1684327390674,656,-2988,2792 
1684327390714,776,-2954,2798 
1684327390754,679,-2859,2895 
1684327390794,728,-2946,2808 
1684327390835,677,-2948,2843 
1684327390874,812,-2929,2762 
1684327390914,703,-2892,2817 
1684327390954,747,-2865,2767 
1684327390994,745,-2942,2818 
1684327391035,645,-3052,2794 
1684327391074,764,-2863,2870 
1684327391115,760,-2884,2850 
1684327391154,732,-2901,2844 
1684327391194,744,-2906,2790 
1684327391235,756,-2966,2749 
1684327391275,690,-2911,2810 
1684327391315,744,-2879,2836 
1684327391355,800,-2859,2936 
1684327391395,705,-3009,2717 
1684327391435,681,-2947,2796 
1684327391475,797,-2812,2805 
1684327391515,832,-2857,2826 
1684327391555,700,-2915,2916 
1684327391595,828,-2899,2868 
1684327391635,783,-2874,2883 
1684327391675,837,-2997,2709 
1684327391715,882,-2877,2659 
1684327391755,794,-2844,2839 
1684327391795,769,-2978,2772 
1684327391836,776,-2877,2863 
1684327391875,791,-2947,2782 
1684327391915,806,-2866,2711 
1684327391955,758,-2954,2841 
1684327391995,722,-3057,2606 
1684327392036,700,-2988,2769 
1684327392075,826,-2900,2781 
1684327392115,730,-2851,2868 
1684327392155,805,-2856,2854 
1684327392195,808,-2926,2782 
1684327392236,808,-2861,2720 
1684327392275,836,-2830,2848 
1684327392315,687,-2764,3055 
1684327392355,772,-3008,2782 
1684327392395,797,-2862,2760 
1684327392436,757,-2771,2863 
1684327392475,784,-2978,2881 
1684327392515,773,-2864,2822 
1684327392555,783,-2801,2844 
1684327392595,793,-2820,2837 
1684327392636,774,-2900,2896 
1684327392675,756,-2898,2846 
1684327392715,667,-2905,2889 
1684327392755,789,-2915,2779 
1684327392796,778,-2967,2830 
1684327392836,736,-2835,2858 
1684327392875,720,-3005,2872 
1684327392916,655,-2988,2707 
1684327392956,774,-2884,2825 
1684327392996,759,-2840,2895 
1684327393036,788,-2895,2825 
1684327393076,720,-2969,2823 
1684327393116,730,-2901,2806 
1684327393156,734,-2891,2869 
1684327393196,738,-2869,2825 
1684327393236,740,-2889,2869 
1684327393276,721,-2918,2777 
1684327393316,751,-2871,2784 
1684327393356,727,-2865,2891 
1684327393396,753,-2959,2806 
1684327393437,760,-2863,2830 
1684327393476,748,-2920,2780 
1684327393516,782,-2822,2832 
1684327393556,739,-2882,2862 
1684327393596,758,-2887,2804 
1684327393637,724,-2893,2797 
1684327393676,763,-2924,2833 
1684327393716,721,-2941,2831 
1684327393756,760,-2931,2767 
1684327393796,763,-2807,2743 
1684327393837,680,-3014,2836 
1684327393876,774,-2792,2852 
1684327393916,685,-2852,2993 
1684327393956,668,-2968,2802 
1684327393996,735,-2831,2899 
1684327394037,739,-2869,2856 
1684327394076,672,-2975,2899 
1684327394116,686,-2918,2866 
1684327394156,682,-2678,3095 
1684327394196,710,-2904,2828 
1684327394237,709,-3037,2812 
1684327394276,678,-2912,2914 
1684327394316,770,-2997,2739 
1684327394357,688,-2814,2915 
1684327394397,795,-2643,2996 
1684327394437,652,-2875,2921 
1684327394477,714,-2944,2935 
1684327394516,768,-2783,2856 
1684327394557,719,-3006,2873 
1684327394597,736,-2825,2901 
1684327394637,737,-2856,2931 
1684327394677,695,-2949,2827 
1684327394717,753,-2854,2898 
1684327394757,734,-2785,2899 
1684327394797,664,-2861,2865 
1684327394838,725,-2903,2897 
1684327394877,741,-2848,2841 
1684327394917,747,-2724,2938 
1684327394957,731,-2876,2918 
1684327394997,662,-2904,2909 
1684327395038,710,-2790,2917 
1684327395077,710,-2853,2897 
1684327395117,762,-2907,2813 
1684327395157,634,-2826,2961 
1684327395197,745,-2861,2865 
1684327395238,711,-2882,2875 
1684327395277,783,-2859,2869 
1684327395317,714,-2904,2874 
1684327395357,713,-2843,2866 
1684327395397,726,-2803,2900 
1684327395438,698,-2838,2860 
1684327395477,724,-2860,2866 
1684327395517,720,-2890,2868 
1684327395557,749,-2812,2910 
1684327395597,703,-2844,2929 
1684327395638,710,-2800,2944 
1684327395677,684,-2804,2980 
1684327395717,719,-2933,2872 
1684327395757,727,-2928,2823 
1684327395797,727,-2833,2854 
1684327395838,751,-2816,2934 
1684327395877,651,-2835,2946 
1684327395918,705,-2841,2901 
1684327395957,735,-2873,2870 
1684327395997,720,-2910,2886 
1684327396038,694,-2764,2902 
1684327396078,710,-2888,2899 
1684327396118,707,-2892,2899 
1684327396158,710,-2775,2872 
1684327396198,673,-2835,2928 
1684327396238,714,-2880,2867 
1684327396278,723,-2784,2926 
1684327396318,698,-2897,2841 
1684327396358,685,-2852,2924 
1684327396398,736,-2838,2913 
1684327396438,670,-2904,2854 
1684327396478,730,-2858,2879 
1684327396518,693,-2850,2903 
1684327396558,771,-2916,2807 
1684327396598,669,-2870,2867 
1684327396639,681,-2840,2919 
1684327396678,693,-2814,2906 
1684327396718,642,-2811,2963 
1684327396758,672,-2969,2860 
1684327396798,706,-2960,2776 
1684327396839,736,-2770,2969 
1684327396878,727,-2908,2917 
1684327396918,668,-2839,2897 
1684327396958,727,-2857,2929 
1684327396998,706,-2878,2836 
1684327397039,691,-2932,2891 
1684327397078,690,-2876,2897 
1684327397118,674,-2807,2892 
1684327397158,758,-2774,2976 
1684327397198,653,-2957,2871 
1684327397239,705,-2953,2836 
1684327397278,746,-2799,2893 
1684327397318,671,-2852,2921 
1684327397358,693,-2901,2924 
1684327397398,660,-2896,2840 
1684327397439,739,-2851,2884 
1684327397478,720,-2854,2885 
1684327397518,676,-2880,2871 
1684327397558,715,-2859,2891 
1684327397599,677,-2836,2891 
1684327397639,684,-2881,2914 
1684327397679,706,-2853,2855 
1684327397719,675,-2814,2827 
1684327397759,702,-2885,2894 
1684327397799,654,-2891,2914 
1684327397839,692,-2843,2881 
1684327397879,691,-2857,2869 
1684327397919,709,-2887,2858 
1684327397959,678,-2868,2884 
1684327397999,696,-2876,2877 
1684327398039,715,-2836,2881 
1684327398079,676,-2866,2888 
1684327398119,706,-2843,2867 
1684327398159,689,-2885,2851 
1684327398199,695,-2822,2955 
1684327398240,723,-2930,2908 
1684327398279,736,-2853,2892 
1684327398319,718,-2796,2934 
1684327398359,706,-2921,2885 
1684327398399,656,-2854,2816 
1684327398440,746,-2835,2858 
1684327398479,636,-2866,3014 
1684327398519,710,-2888,2735 
1684327398559,768,-2859,2937 
1684327398599,659,-2789,2885 
1684327398640,753,-2926,2916 
1684327398679,782,-2813,2882 
1684327398719,785,-2757,3021 
1684327398759,734,-2851,2903 
1684327398799,716,-2916,3027 
1684327398840,868,-2808,2779 
1684327398879,826,-2855,3038 
1684327398919,729,-2896,2819 
1684327398959,908,-2750,2998 
1684327398999,862,-2595,2904 
1684327399040,929,-2891,2925 
1684327399079,766,-2723,2951 
1684327399119,950,-2821,2875 
1684327399160,896,-2699,2859 
1684327399199,913,-2771,2877 
1684327399240,794,-2903,2913 
1684327399280,889,-2779,2810 
1684327399320,963,-2733,2969 
1684327399360,892,-2833,2878 
1684327399400,938,-2804,2848 
1684327399440,867,-2769,2916 
1684327399480,862,-2797,2925 
1684327399520,945,-2820,2830 
1684327399560,865,-2756,2895 
1684327399600,882,-2927,2769 
1684327399641,895,-2683,2898 
1684327399680,857,-2896,2877 
1684327399720,880,-2766,2886 
1684327399760,892,-2807,2868 
1684327399800,945,-2787,2862 
1684327399841,874,-2801,2942 
1684327399880,891,-2787,2913 
1684327399920,905,-2707,2884 
1684327399960,876,-2801,2868 
1684327400000,900,-2817,2885 
1684327400041,904,-2897,2896 
1684327400080,854,-2783,2844 
1684327400120,908,-2866,2836 
1684327400160,931,-2771,3008 
1684327400200,896,-3004,2821 
1684327400241,936,-2788,2837 
1684327400280,943,-2603,2942 
1684327400320,976,-2638,2994 
1684327400360,764,-2909,2986 
1684327400400,879,-2797,3042 
1684327400441,762,-2620,2977 
1684327400480,759,-2817,3009 
1684327400520,865,-2806,2879 
1684327400560,880,-2794,2902 
1684327400600,801,-2842,2906 
1684327400641,875,-2780,2933 
1684327400680,776,-2713,3024 
1684327400721,886,-2806,2786 
1684327400760,895,-2669,2864 
1684327400800,743,-2866,3121 
1684327400841,720,-2860,2992 
1684327400881,815,-2627,2897 
1684327400921,914,-2769,2814 
1684327400961,823,-2812,2906 
1684327401001,835,-2881,2825 
1684327401041,836,-2672,2883 
1684327401081,681,-2880,2901 
1684327401121,746,-2833,2874 
1684327401161,847,-2744,2893 
1684327401201,753,-2803,2973 
1684327401242,801,-2790,2961 
1684327401281,786,-2698,2869 
1684327401321,818,-2763,2885 
1684327401361,786,-2926,2915 
1684327401401,788,-2805,2973 
1684327401442,845,-2787,2924 
1684327401481,779,-2773,2999 
1684327401521,723,-2790,2902 
1684327401561,843,-2764,2918 
1684327401601,744,-2795,2911 
1684327401642,841,-2782,2953 
1684327401681,765,-2756,2972 
1684327401721,797,-2834,2938 
1684327401761,736,-2837,2899 
1684327401801,785,-2817,2965 
1684327401842,827,-2705,2892 
1684327401881,904,-2863,2839 
1684327401921,791,-2889,2823 
1684327401961,720,-2824,3012 
1684327402001,792,-2870,2844 
1684327402042,803,-2745,2846 
1684327402081,818,-2762,2793 
1684327402121,777,-2803,2956 
1684327402162,801,-2755,3038 
1684327402201,848,-2840,2778 
1684327402242,789,-2879,2910 
1684327402282,816,-2741,2861 
1684327402321,781,-2826,2899 
1684327402361,758,-2762,2937 
1684327402402,681,-2873,2861 
1684327402442,675,-2903,2797 
1684327402482,838,-2688,2885 
1684327402522,606,-2747,3103 
1684327402562,813,-2944,2789 
1684327402602,737,-2820,2916 
1684327402642,711,-2815,2913 
1684327402682,617,-2884,2924 
1684327402722,785,-2717,2830 
1684327402762,685,-2897,2914 
1684327402802,640,-3023,3011 
1684327402842,813,-2774,2799 
1684327402882,596,-3063,2833 
1684327402922,605,-2936,2801 
1684327402962,733,-2812,2924 
1684327403002,719,-2894,2798 
1684327403043,720,-2827,2971 
1684327403082,615,-2894,2903 
1684327403122,708,-2826,2920 
1684327403162,727,-2861,2767 
1684327403202,741,-2905,2927 
1684327403243,547,-2839,2828 
1684327403282,666,-2915,2953 
1684327403322,652,-2810,2898 
1684327403362,725,-2854,2957 
1684327403402,661,-2888,2904 
1684327403443,701,-2913,2815 
1684327403482,687,-2989,2999 
1684327403522,511,-2878,2905 
1684327403562,779,-2898,2822 
1684327403602,718,-2945,2833 
1684327403643,525,-2893,2881 
1684327403682,780,-2789,2921 
1684327403722,666,-2840,2916 
1684327403762,720,-2804,2848 
1684327403802,640,-2946,2823 
1684327403843,572,-3005,2894 
1684327403882,670,-2841,2836 
1684327403922,723,-2803,2865 
1684327403963,699,-2945,2902 
1684327404002,745,-2813,2801 
1684327404043,621,-2953,2887 
1684327404083,592,-2814,2920 
1684327404122,665,-2828,2831 
1684327404163,699,-2882,2830 
1684327404203,589,-2995,2842 
1684327404243,679,-2855,2827 
1684327404283,738,-2830,2859 
1684327404323,735,-2872,2883 
1684327404363,657,-2880,2855 
1684327404403,609,-2926,2927 
1684327404444,618,-2990,2755 
1684327404483,701,-2812,2805 
1684327404523,700,-2901,2934 
1684327404563,662,-2862,2881 
1684327404603,755,-2918,2921 
1684327404644,604,-2908,2809 
1684327404683,713,-2876,2838 
1684327404723,671,-2976,2825 
1684327404763,678,-2890,2896 
1684327404803,687,-2846,2904 
1684327404844,644,-2930,2899 
1684327404883,693,-2901,2778 
1684327404923,674,-2858,2931 
1684327404963,696,-2886,2866 
1684327405003,686,-2877,2866 
1684327405044,593,-2901,2902 
1684327405083,620,-2973,2728 
1684327405123,765,-2994,2800 
1684327405163,535,-2857,2885 
1684327405203,674,-2771,2932 
1684327405244,669,-2895,2928 
1684327405283,627,-2940,2815 
1684327405323,758,-2941,2822 
1684327405363,627,-2952,2822 
1684327405403,700,-2861,2838 
1684327405444,608,-2987,2837 
1684327405483,584,-2914,2886 
1684327405523,625,-2868,2845 
1684327405563,704,-2848,2877 
1684327405603,632,-2864,2904 
1684327405644,714,-2891,2857 
1684327405683,642,-2796,2937 
1684327405723,625,-2791,2967 
1684327405764,716,-2807,2772 
1684327405803,763,-3075,2775 
1684327405844,686,-2991,2753 
1684327405884,721,-2853,2914 
1684327405924,599,-2871,2945 
1684327405964,609,-2830,2848 
1684327406004,788,-2758,2880 
1684327406044,606,-2871,2930 
1684327406084,746,-2887,2830 
1684327406124,682,-2810,2956 
1684327406164,666,-2896,2877 
1684327406204,685,-2825,2871 
1684327406244,794,-2889,2864 
1684327406284,621,-2898,2973 
1684327406324,731,-2760,2888 
1684327406364,683,-2872,2919 
1684327406404,688,-2900,2878 
1684327406444,723,-2858,2944 
1684327406484,726,-2895,2874 
1684327406524,680,-2842,2913 
1684327406564,756,-2881,2886 
1684327406604,716,-2788,2891 
1684327406645,688,-2857,2910 
1684327406684,703,-2872,2890 
1684327406724,684,-2855,2883 
1684327406764,656,-2885,2862 
1684327406804,710,-2815,2925 
1684327406845,718,-2832,2871 
1684327406884,699,-2887,2934 
1684327406924,712,-2881,2878 
1684327406964,725,-2799,2903 
1684327407004,741,-2830,2872 
1684327407045,637,-2894,2923 
1684327407084,692,-2856,2882 
1684327407124,711,-2852,2902 
1684327407164,695,-2861,2927 
1684327407204,671,-2895,2900 
1684327407245,682,-2773,2844 
1684327407284,692,-2825,2977 
1684327407324,647,-2932,2849 
1684327407364,710,-2846,2890 
1684327407404,676,-2804,2887 
1684327407445,726,-2833,2890 
1684327407484,679,-2925,2857 
1684327407524,747,-2833,2923 
1684327407565,692,-2747,2930 
1684327407604,693,-2863,2880 
1684327407645,718,-2865,2873 
1684327407685,696,-2854,2849 
1684327407724,699,-2886,2904 
1684327407765,678,-2876,2866 
1684327407805,704,-2831,2922 
1684327407845,706,-2826,2912 
1684327407885,725,-2895,2887 
1684327407925,648,-2886,2906 
1684327407965,736,-2894,2881 
1684327408005,697,-2883,2848 
1684327408046,672,-2865,2908 
1684327408085,675,-2849,2899 
1684327408125,700,-2921,2884 
1684327408165,643,-2864,2864 
1684327408205,687,-2776,2974 
1684327408246,698,-2862,2907 
1684327408285,697,-2856,2875 
1684327408325,671,-2904,2920 
1684327408365,713,-2837,2888 
1684327408405,708,-2878,2877 
1684327408446,693,-2872,2883 
1684327408485,689,-2923,2847 
1684327408525,654,-2852,2877 
1684327408565,733,-2847,2919 
1684327408605,706,-2880,2873 
1684327408646,669,-2878,2910 
1684327408685,687,-2856,2861 
1684327408725,733,-2885,2926 
1684327408765,680,-2882,2861 
1684327408805,677,-2880,2904 
1684327408846,710,-2836,2867 
1684327408885,694,-2853,2873 
1684327408925,745,-2902,2841 
1684327408965,678,-2890,2868 
1684327409006,706,-2868,2846 
1684327409046,714,-2905,2906 
1684327409085,702,-2827,2915 
1684327409125,733,-2875,2859 
1684327409165,712,-2902,2866 
1684327409205,638,-2866,2864 
1684327409246,706,-2902,2880 
1684327409285,706,-2894,2854 
1684327409325,681,-2873,2886 
1684327409366,737,-2913,2880 
1684327409405,696,-2823,2875 
1684327409446,664,-2884,2857 
1684327409486,741,-2909,2863 
1684327409526,655,-2853,2868 
1684327409566,771,-2874,2840 
1684327409606,646,-2901,2841 
1684327409646,710,-2907,2848 
1684327409686,654,-2738,2927 
1684327409726,703,-2907,2830 
1684327409766,710,-2953,2833 
1684327409806,720,-2879,2870 
1684327409847,712,-2878,2858 
1684327409886,649,-2863,2867 
1684327409926,743,-2849,2841 
1684327409966,556,-2882,2877 
1684327410006,797,-2919,2826 
1684327410047,691,-2847,2873 
1684327410086,687,-2881,2899 
1684327410126,737,-2876,2845 
1684327410166,710,-2872,2915 
1684327410206,756,-2833,2921 
1684327410247,659,-2859,2920 
1684327410286,680,-2944,2827 
1684327410326,693,-2930,2856 
1684327410366,750,-2779,2943 
1684327410406,656,-2810,2899 
1684327410447,767,-2861,2911 
1684327410486,681,-2848,2907 
1684327410526,718,-2916,2840 
1684327410566,676,-2777,2992 
1684327410606,678,-2818,2979 
1684327410647,721,-2861,2912 
1684327410686,749,-2832,2901 
1684327410726,728,-2791,2890 
1684327410766,674,-2818,2956 
1684327410806,762,-2828,2871 
1684327410847,722,-2824,2906 
1684327410886,760,-2820,2876 
1684327410926,757,-2715,2939 
1684327410966,747,-2841,2947 
1684327411006,683,-2943,2889 
1684327411047,686,-2748,2911 
1684327411086,818,-2737,2944 
1684327411127,689,-2828,2963 
1684327411167,689,-2928,2931 
1684327411207,691,-2920,2937 
1684327411247,661,-2784,2940 
1684327411287,772,-2776,2916 
1684327411327,713,-2881,2901 
1684327411367,712,-2802,2913 
1684327411407,720,-2787,3001 
1684327411447,719,-2841,2905 
1684327411487,743,-2856,2871 
1684327411527,712,-2765,2909 
1684327411567,738,-2823,2967 
1684327411607,695,-2833,2918 
1684327411648,782,-2795,2924 
1684327411687,695,-2839,2872 
1684327411727,743,-2849,2874 
1684327411766,736,-2750,2992 
1684327411806,715,-2847,2938 
1684327411847,699,-2858,2866 
1684327411886,726,-2782,2922 
1684327411926,722,-2850,2899 
1684327411966,714,-2856,2909 
1684327412006,696,-2840,2926 
1684327412047,794,-2778,2906 
1684327412086,686,-2876,2891 
1684327412126,682,-2901,2881 
1684327412166,728,-2780,2935 
1684327412206,734,-2880,2900 
1684327412247,644,-2835,2893 
1684327412286,772,-2847,2869 
1684327412326,696,-2755,2951 
1684327412366,743,-2905,2879 
1684327412406,647,-2890,2850 
1684327412447,765,-2777,2970 
1684327412486,702,-2802,2904 
1684327412526,660,-2881,2895 
1684327412566,756,-2872,2838 
1684327412606,699,-2850,2907 
1684327412647,722,-2765,2950 
1684327412686,726,-2887,2921 
1684327412727,678,-2820,2883 
1684327412766,752,-2801,2876 
1684327412806,673,-2852,2957 
1684327412847,758,-2809,2872 
1684327412887,744,-2774,2928 
1684327412927,697,-2818,2954 
1684327412967,713,-2863,2900 
1684327413007,685,-2838,2915 
1684327413047,712,-2884,2879 
1684327413087,742,-2780,2889 
1684327413127,687,-2875,2939 
1684327413167,639,-2953,2972 
1684327413207,747,-2937,2959 
1684327413247,794,-2771,2923 
1684327413287,760,-2659,2978 
1684327413327,846,-2781,2796 
1684327413367,869,-2863,2930 
1684327413407,744,-2800,2847 
1684327413448,810,-2938,2849 
1684327413487,845,-2757,2808 
1684327413527,877,-2702,2919 
1684327413567,878,-2802,2896 
1684327413607,735,-2922,2957 
1684327413648,729,-2905,2861 
1684327413687,847,-2785,3045 
1684327413727,857,-2736,2868 
1684327413767,785,-2917,2938 
1684327413807,821,-2934,2899 
1684327413848,829,-2722,2965 
1684327413887,872,-2768,2820 
1684327413927,857,-2915,2961 
1684327413967,815,-2835,2910 
1684327414007,814,-2783,2868 
1684327414048,873,-2742,3042 
1684327414087,839,-2937,2912 
1684327414127,764,-2868,2944 
1684327414167,751,-2728,3007 
1684327414207,927,-2785,2952 
1684327414248,839,-2949,2813 
1684327414288,886,-2866,2782 
1684327414327,982,-2803,2891 
1684327414367,811,-2726,3138 
1684327414408,867,-2880,2771 
1684327414448,967,-2714,2784 
1684327414487,860,-2773,2854 
1684327414528,851,-2877,2823 
1684327414567,866,-2787,2897 
1684327414607,906,-2729,2994 
1684327414648,869,-2880,2920 
1684327414688,893,-3014,2965 
1684327414728,982,-2718,2868 
1684327414768,871,-2767,2891 
1684327414808,899,-2964,2939 
1684327414848,886,-2820,2906 
1684327414888,834,-2768,2901 
1684327414928,1001,-2917,2662 
1684327414968,868,-2716,2929 
1684327415008,896,-2709,3001 
1684327415048,875,-2960,2762 
1684327415088,832,-2984,3027 
1684327415128,945,-2694,2770 
1684327415168,849,-2707,2948 
1684327415208,1080,-2897,2881 
1684327415249,798,-2667,2833 
1684327415288,846,-3134,2764 
1684327415328,829,-2853,2808 
1684327415368,974,-2801,3045 
1684327415408,867,-2912,2869 
1684327415449,870,-2890,2768 
1684327415488,934,-2839,2966 
1684327415528,831,-3017,2724 
1684327415568,846,-2962,2870 
1684327415608,875,-2735,2936 
1684327415649,909,-2848,2767 
1684327415688,891,-2918,2693 
1684327415728,850,-3059,2871 
1684327415768,794,-3026,2757 
1684327415808,856,-2839,2840 
1684327415849,871,-2795,2798 
1684327415888,931,-2837,2785 
1684327415928,878,-2854,2806 
1684327415968,920,-3015,2716 
1684327416008,789,-2981,2845 
1684327416049,870,-2919,2767 
1684327416088,831,-2896,2862 
1684327416128,839,-2960,2853 
1684327416168,781,-2956,2729 
1684327416209,1013,-2802,2723 
1684327416249,955,-2827,2884 
1684327416289,780,-3167,2719 
1684327416329,803,-2889,2758 
1684327416369,923,-2878,2831 
1684327416409,784,-2902,2803 
1684327416449,881,-2916,2786 
1684327416489,875,-2820,2783 
1684327416529,866,-2813,2792 
1684327416569,847,-2788,2789 
1684327416609,861,-3002,2988 
1684327416649,797,-3018,2775 
1684327416689,862,-2939,2807 
1684327416729,781,-2845,2859 
1684327416769,829,-2929,2796 
1684327416809,884,-2788,2746 
1684327416850,823,-2911,2835 
1684327416889,810,-2888,2829 
1684327416929,891,-2899,2749 
1684327416969,789,-2918,2800 
1684327417009,790,-2911,2851 
1684327417050,780,-2894,2825 
1684327417089,837,-2919,2817 
1684327417129,860,-2884,2864 
1684327417169,800,-2834,2807 
1684327417209,823,-3018,2885 
1684327417250,761,-2922,2838 
1684327417289,877,-2782,2793 
1684327417329,813,-2822,2952 
1684327417369,779,-2894,2785 
1684327417409,834,-2928,2839 
1684327417450,736,-2909,2924 
1684327417489,866,-2945,2770 
1684327417529,817,-2834,2783 
1684327417569,777,-2895,2855 
1684327417609,839,-2740,2922 
1684327417650,797,-2916,2790 
1684327417689,792,-2859,2886 
1684327417729,773,-2689,3038 
1684327417770,866,-2844,2819 
1684327417809,809,-2943,2767 
1684327417850,859,-2807,2847 
1684327417890,826,-2830,2899 
1684327417929,795,-2895,2929 
1684327417969,844,-2789,2942 
1684327418010,851,-2794,2846 
1684327418050,828,-2831,2955 
1684327418090,785,-2769,2894 
1684327418130,928,-2763,2844 
1684327418170,796,-2917,2864 
1684327418210,846,-2902,2879 
1684327418250,755,-2843,2923 
1684327418290,820,-2828,2856 
1684327418330,853,-2820,2969 
1684327418370,817,-2850,2807 
1684327418410,831,-2773,2839 
1684327418450,785,-2851,2893 
1684327418490,844,-2799,2871 
1684327418530,813,-2901,2906 
1684327418570,745,-2809,2945 
1684327418610,943,-2737,2910 
1684327418651,801,-2753,2932 
1684327418690,867,-2832,2888 
1684327418730,794,-2854,2937 
1684327418770,807,-2801,2899 
1684327418810,847,-2814,2863 
1684327418851,865,-2871,2921 
1684327418890,854,-2789,2963 
1684327418930,810,-2758,2893 
1684327418970,890,-2665,3066 
1684327419010,861,-2702,2900 
1684327419051,913,-2840,2858 
1684327419090,816,-2748,2989 
1684327419130,859,-2807,2892 
1684327419170,855,-2777,2925 
1684327419210,827,-2734,2909 
1684327419251,817,-2774,2943 
1684327419290,874,-2749,2929 
1684327419330,895,-2828,2914 
1684327419370,762,-2789,2970 
1684327419410,786,-2761,2923 
1684327419451,850,-2770,3011 
1684327419490,875,-2737,2911 
1684327419530,811,-2818,2880 
1684327419571,871,-2784,2938 
1684327419610,728,-2772,2919 
1684327419651,817,-2855,2999 
1684327419691,808,-2714,2894 
1684327419730,849,-2751,2871 
1684327419770,809,-2920,2955 
1684327419811,791,-2710,2946 
1684327419851,836,-2729,2959 
1684327419891,801,-2690,2951 
1684327419931,797,-2808,3000 
1684327419971,784,-2958,2873 
1684327420011,798,-2681,2966 
1684327420051,844,-2690,2984 
1684327420091,773,-2746,2873 
1684327420131,802,-2875,2913 
1684327420171,775,-2831,2958 
1684327420211,802,-2698,2935 
1684327420251,759,-2788,2939 
1684327420291,793,-2741,2857 
1684327420331,855,-2727,2879 
1684327420371,777,-2863,2927 
1684327420411,801,-2853,2911 
1684327420452,796,-2795,2864 
1684327420491,825,-2790,2888 
1684327420531,832,-2735,2952 
1684327420571,746,-2862,3008 
1684327420611,801,-2751,2886 
1684327420652,830,-2871,2850 
1684327420691,798,-2940,2847 
1684327420731,746,-2941,2859 
1684327420771,804,-2786,2908 
1684327420811,815,-2684,2919 
1684327420852,780,-2666,3040 
1684327420891,883,-2646,2900 
1684327420931,737,-2991,2783 
1684327420971,647,-3256,2774 
1684327421011,740,-3039,2874 
1684327421052,719,-2742,2947 
1684327421091,823,-2758,2901 
1684327421131,700,-2844,2932 
1684327421171,687,-2885,2900 
1684327421211,775,-2866,2766 
1684327421252,788,-2899,2830 
1684327421291,723,-2873,2820 
1684327421331,683,-3028,2939 
1684327421372,649,-2948,2805 
1684327421411,730,-2868,2901 
1684327421452,716,-2846,2885 
1684327421492,706,-2941,2760 
1684327421532,660,-2958,2802 
1684327421572,660,-2820,2899 
1684327421612,774,-2816,2843 
1684327421652,679,-2935,2818 
1684327421692,678,-2953,2832 
1684327421732,704,-2877,2882 
1684327421772,689,-2863,2900 
1684327421812,688,-2878,2844 
1684327421853,671,-2926,2851 
1684327421892,729,-2928,2769 
1684327421932,714,-2896,2803 
1684327421972,694,-2912,2834 
1684327422012,675,-2917,2857 
1684327422052,731,-2881,2850 
1684327422092,712,-2878,2847 
1684327422132,663,-2965,2874 
1684327422172,707,-2895,2839 
1684327422212,705,-2876,2851 
1684327422253,658,-2898,2860 
1684327422292,737,-2858,2816 
1684327422332,720,-2821,2884 
1684327422372,674,-2835,2880 
1684327422412,673,-2932,2861 
1684327422453,740,-2868,2828 
1684327422492,758,-2888,2845 
1684327422532,716,-2938,2841 
1684327422572,663,-2893,2855 
1684327422612,738,-2854,2841 
1684327422653,771,-2840,2855 
1684327422692,692,-2859,2877 
1684327422732,670,-2885,2912 
1684327422772,750,-2904,2857 
1684327422812,685,-2885,2832 
1684327422853,767,-2943,2830 
1684327422892,700,-2954,2825 
1684327422933,707,-2884,2871 
1684327422972,557,-2875,2960 
1684327423012,808,-2867,2803 
1684327423053,703,-2867,2885 
1684327423092,754,-2929,2827 
1684327423132,740,-2871,2834 
1684327423173,723,-2897,2840 
1684327423212,693,-2847,2899 
1684327423253,774,-2804,2904 
1684327423293,745,-2774,2898 
1684327423333,775,-2894,2837 
1684327423372,732,-2882,2881 
1684327423413,693,-2916,2859 
1684327423453,789,-2887,2844 
1684327423493,658,-2847,2889 
1684327423533,700,-2865,2934 
1684327423573,749,-2823,2829 
1684327423613,705,-2853,2884 
1684327423653,719,-2901,2787 
1684327423693,696,-2849,2864 
1684327423733,718,-2905,2899 
1684327423775,740,-2880,2854 
1684327423815,701,-2880,2873 
1684327423855,733,-2866,2891 
1684327423895,753,-2830,2876 
1684327423935,671,-2888,2880 
1684327423975,753,-2848,2856 
1684327424015,742,-2867,2867 
1684327424056,734,-2904,2889 
1684327424095,689,-2812,2885 
1684327424135,781,-2829,2830 
1684327424175,679,-2902,2904 
1684327424215,759,-2826,2828 
1684327424256,654,-2857,2885 
1684327424295,748,-2892,2855 
1684327424335,742,-2813,2875 
1684327424375,694,-2887,2841 
1684327424415,747,-2905,2849 
1684327424456,676,-2877,2900 
1684327424495,741,-2875,2853 
1684327424535,717,-2913,2912 
1684327424575,676,-2849,2854 
1684327424615,790,-2854,2852 
1684327424656,662,-2877,2861 
1684327424695,723,-2914,2828 
1684327424735,723,-2852,2890 
1684327424775,712,-2882,2880 
1684327424815,743,-2878,2873 
1684327424856,708,-2896,2829 
1684327424895,721,-2903,2848 
1684327424935,726,-2798,2879 
1684327424976,721,-2884,2925 
1684327425015,688,-2938,2843 
1684327425056,761,-2806,2881 
1684327425096,704,-2920,2816 
1684327425136,690,-2927,2867 
1684327425176,772,-2827,2915 
1684327425216,732,-2872,2845 
1684327425256,683,-2826,2899 
1684327425296,751,-2836,2954 
1684327425336,670,-2950,2811 
1684327425376,700,-2868,2934 
1684327425416,746,-2749,2916 
1684327425457,707,-2906,2845 
1684327425496,741,-2848,2840 
1684327425536,724,-2860,2918 
1684327425576,718,-2886,2897 
1684327425616,720,-2832,2913 
1684327425657,741,-2832,2977 
1684327425696,680,-2877,2849 
1684327425736,768,-2885,2864 
1684327425776,653,-2939,2844 
1684327425816,740,-2927,2869 
1684327425857,721,-2852,2906 
1684327425896,746,-2836,2841 
1684327425936,728,-2852,2874 
1684327425976,761,-2834,2856 
1684327426016,685,-2926,2892 
1684327426057,696,-2803,2838 
1684327426096,700,-2957,2872 
1684327426136,701,-2865,2836 
1684327426176,754,-2817,2929 
1684327426216,664,-2873,2843 
1684327426257,750,-2920,2853 
1684327426296,685,-2846,2821 
1684327426336,724,-2904,2920 
1684327426376,673,-2860,2871 
1684327426416,771,-2846,2843 
1684327426457,665,-2986,2854 
1684327426496,743,-2774,2854 
1684327426536,753,-2928,3068 
1684327426576,642,-2925,2767 
1684327426616,801,-2869,2916 
1684327426657,740,-2863,2798 
1684327426696,782,-2827,2859 
1684327426737,711,-2811,2846 
1684327426777,917,-2833,2851 
1684327426817,761,-2811,2820 
1684327426857,822,-2902,2910 
1684327426897,797,-2884,2926 
1684327426937,748,-2848,2945 
1684327426977,831,-2793,2873 
1684327427017,851,-2872,2938 
1684327427057,810,-2925,2866 
1684327427097,770,-2785,2910 
1684327427137,900,-2690,2910 
1684327427177,863,-2809,2838 
1684327427217,810,-2872,2793 
1684327427258,847,-2719,2867 
1684327427297,885,-2696,2976 
1684327427337,907,-2763,2837 
1684327427377,885,-2816,2930 
1684327427417,789,-2930,2972 
1684327427458,879,-2850,2863 
1684327427497,874,-2725,2893 
1684327427537,775,-2806,2946 
1684327427577,847,-2860,2853 
1684327427617,975,-2711,2916 
1684327427658,888,-2699,2850 
1684327427697,846,-3042,2871 
1684327427737,769,-2877,2861 
1684327427777,909,-2740,2859 
1684327427817,884,-2851,2839 
1684327427858,890,-2771,2848 
1684327427897,940,-2881,2783 
1684327427937,804,-2810,2819 
1684327427977,900,-2872,2912 
1684327428017,919,-2829,2805 
1684327428058,844,-2756,2893 
1684327428097,890,-2838,2903 
1684327428137,833,-2842,2902 
1684327428177,878,-2857,2913 
1684327428217,807,-2859,2811 
1684327428258,851,-2888,2895 
1684327428297,829,-2844,2863 
1684327428337,880,-2792,2896 
1684327428377,843,-2857,2845 
1684327428417,833,-2846,2977 
1684327428458,754,-2909,2816 
1684327428497,768,-2901,2899 
1684327428537,861,-2754,2848 
1684327428578,812,-2896,2909 
1684327428618,739,-2858,2869 
1684327428658,842,-2829,2814 
1684327428698,741,-2890,2847 
1684327428738,746,-2916,2841 
1684327428778,747,-2877,2842 
1684327428818,836,-2982,2869 
1684327428858,670,-2944,2840 
1684327428898,758,-2876,2848 
1684327428938,834,-2806,2901 
1684327428978,642,-3029,2746 
1684327429018,828,-2887,2882 
1684327429059,763,-2931,2837 
1684327429098,679,-2886,2808 
1684327429138,752,-2818,2916 
1684327429178,806,-2864,2824 
1684327429218,756,-2956,2760 
1684327429259,764,-2801,2851 
1684327429298,776,-2948,2890 
1684327429338,757,-2887,2831 
1684327429378,801,-2762,2899 
1684327429418,814,-2946,2877 
1684327429459,706,-3006,2864 
1684327429498,776,-2873,2838 
1684327429538,772,-2814,2889 
1684327429578,743,-2848,2885 
1684327429618,756,-2922,2838 
1684327429659,733,-2888,2881 
1684327429698,827,-2806,2914 
1684327429738,775,-2990,2762 
1684327429778,744,-2883,2905 
1684327429818,789,-2859,2843 
1684327429859,756,-2832,2880 
1684327429898,812,-2876,2803 
1684327429938,775,-2778,2846 
1684327429978,724,-2966,2920 
1684327430019,773,-2873,2811 
1684327430059,758,-2869,2873 
1684327430098,755,-2934,2849 
1684327430139,748,-2891,2875 
1684327430179,762,-2745,2908 
1684327430219,766,-2863,2877 
1684327430259,736,-2987,2757 
1684327430299,725,-2738,2919 
1684327430339,802,-2872,2813 
1684327430379,741,-2909,2869 
1684327430419,803,-2849,2867 
1684327430459,802,-2885,2778 
1684327430499,710,-2904,2906 
1684327430539,749,-2944,2789 
1684327430579,736,-2819,2876 
1684327430619,800,-2856,2874 
1684327430660,703,-2882,2868 
1684327430699,696,-2844,2841 
1684327430739,792,-2677,2991 
1684327430779,726,-2896,2827 
1684327430819,721,-2997,2746 
1684327430860,765,-2885,2864 
1684327430899,782,-2785,2885 
1684327430939,681,-2848,2878 
1684327430979,725,-2998,2849 
1684327431019,665,-2921,2813 
1684327431060,806,-2759,2945 
1684327431099,720,-2979,2803 
1684327431139,747,-2924,2770 
1684327431179,793,-2747,2906 
1684327431219,734,-2923,2868 
1684327431260,684,-3039,2783 
1684327431299,683,-2718,2981 
1684327431339,891,-2622,2914 
1684327431379,688,-3050,2906 
1684327431419,637,-2945,2724 
1684327431460,869,-2776,2880 
1684327431499,693,-2875,2919 
1684327431539,721,-2909,2848 
1684327431580,721,-2780,2909 
1684327431619,765,-2877,2898 
1684327431660,726,-2899,2829 
1684327431700,736,-2953,2866 
1684327431739,676,-2941,2862 
1684327431780,695,-2850,2820 
1684327431820,811,-2894,2941 
1684327431860,617,-2936,2826 
1684327431900,769,-2832,2814 
1684327431940,746,-2853,2813 
1684327431980,622,-2883,2883 
1684327432020,787,-2899,2856 
1684327432061,727,-2834,2821 
1684327432100,753,-2914,2798 
1684327432140,665,-2900,2890 
1684327432180,783,-2807,2880 
1684327432220,701,-2866,2858 
1684327432260,698,-2936,2844 
1684327432300,723,-2884,2830 
1684327432340,742,-2837,2877 
1684327432380,750,-2874,2874 
1684327432420,688,-2912,2852 
1684327432461,773,-2915,2824 
1684327432500,830,-2869,2938 
1684327432540,752,-2877,2861 
1684327432580,697,-2871,2876 
1684327432620,775,-2928,2831 
1684327432661,743,-2896,2822 
1684327432700,716,-2829,2850 
1684327432740,804,-2826,2883 
1684327432780,731,-2903,2885 
1684327432820,754,-2932,2785 
1684327432861,731,-2848,2906 
1684327432900,767,-2811,2891 
1684327432940,819,-2823,2798 
1684327432980,699,-2933,2920 
1684327433020,702,-2918,2832 
1684327433061,682,-2892,2825 
1684327433100,780,-2794,2863 
1684327433140,746,-2887,2861 
1684327433180,707,-2910,2857 
1684327433220,758,-2841,2869 
1684327433261,750,-2904,2858 
1684327433300,709,-2870,2889 
1684327433340,765,-2857,2933 
1684327433381,732,-2885,2806 
1684327433420,748,-2887,2876 
1684327433461,683,-2935,2858 
1684327433501,700,-2906,2846 
1684327433541,718,-2952,2860 
1684327433581,656,-2892,2839 
1684327433621,766,-2856,2878 
1684327433661,762,-2820,2919 
1684327433701,737,-2848,2826 
1684327433741,727,-2910,2865 
1684327433781,758,-2850,2831 
1684327433821,755,-2842,2873 
1684327433862,637,-2825,2919 
1684327433901,770,-2910,2862 
1684327433941,714,-2822,2880 
1684327433981,764,-2864,2896 
1684327434021,746,-2845,2847 
1684327434062,752,-2803,2886 
1684327434101,796,-2849,2952 
1684327434141,695,-2884,2903 
1684327434181,741,-2886,2863 
1684327434221,772,-2799,2914 
1684327434262,734,-2790,2927 
1684327434301,741,-2813,3064 
1684327434341,761,-2910,2676 
1684327434381,923,-2875,2764 
1684327434421,459,-3156,2911 
1684327434462,770,-2916,2624 
1684327434501,949,-2712,2814 
1684327434541,799,-2546,2747 
1684327434581,860,-2592,3428 
1684327434621,528,-2634,2817 
1684327434662,767,-3087,2720 
1684327434701,902,-2623,2923 
1684327434741,645,-2871,2957 
1684327434781,886,-2833,2960 
1684327434822,803,-2557,2981 
1684327434862,738,-2808,2968 
1684327434901,678,-3071,2821 
1684327434942,843,-2643,2869 
1684327434982,840,-2650,3183 
1684327435022,715,-2590,2795 
1684327435062,845,-2901,2880 
1684327435102,706,-2878,3019 
1684327435142,814,-2755,2775 
1684327435182,830,-2860,2973 
1684327435222,811,-2698,2965 
1684327435262,800,-2757,2914 
1684327435302,827,-2773,2913 
1684327435342,760,-2749,3046 
1684327435382,781,-2794,2898 
1684327435422,811,-2966,2948 
1684327435463,719,-2700,2802 
1684327435502,887,-2793,2925 
1684327435542,778,-2783,2955 
1684327435582,834,-2797,2924 
1684327435622,762,-2764,3003 
1684327435663,810,-2870,2891 
1684327435702,816,-2697,2907 
1684327435742,768,-2780,3016 
1684327435780,798,-2702,2964 
1684327435820,770,-2755,3050 
1684327435861,775,-2768,2953 
1684327435900,840,-2773,2892 
1684327435940,833,-2859,2915 
1684327435980,753,-2793,2912 
1684327436020,822,-2744,3024 
1684327436061,810,-2711,2971 
1684327436100,795,-2845,2885 
1684327436140,794,-2788,2890 
1684327436180,819,-2842,2976 
1684327436220,793,-2765,2942 
1684327436261,742,-2735,2920 
1684327436300,764,-2787,3032 
1684327436340,819,-2817,2904 
1684327436381,813,-2635,2945 
1684327436420,772,-2707,3060 
1684327436461,729,-2774,2960 
1684327436501,766,-2764,2945 
1684327436540,714,-2806,2972 
1684327436581,792,-2911,2765 
1684327436621,754,-2799,3072 
1684327436661,775,-2744,3032 
1684327436701,767,-2808,2908 
1684327436741,734,-2813,2955 
1684327436781,767,-2810,2932 
1684327436821,787,-2791,2919 
1684327436861,775,-2770,2942 
1684327436901,710,-2838,2929 
1684327436941,782,-2815,2977 
1684327436981,790,-2745,3065 
1684327437021,770,-2784,2953 
1684327437061,725,-2835,2932 
1684327437101,765,-2837,2917 
1684327437141,681,-2708,2945 
1684327437181,882,-2719,2932 
1684327437221,666,-2800,2936 
1684327437262,757,-2977,2882 
1684327437301,717,-2745,3009 
1684327437341,723,-2786,2912 
1684327437381,706,-2857,2960 
1684327437421,787,-2756,2940 
1684327437462,697,-2904,2913 
1684327437501,686,-2925,2830 
1684327437541,753,-2751,2953 
1684327437581,725,-2806,2981 
1684327437621,767,-2748,2850 
1684327437662,734,-2832,3004 
1684327437701,803,-2807,2903 
1684327437741,732,-2861,2890 
1684327437781,706,-2818,2897 
1684327437821,760,-2867,2901 
1684327437862,798,-2836,2969 
1684327437901,700,-2853,2922 
1684327437941,745,-2926,2881 
1684327437981,700,-2820,2991 
1684327438021,743,-2775,2862 
1684327438062,785,-2759,2949 
1684327438101,712,-2773,2862 
1684327438141,741,-2965,2912 
1684327438182,679,-2794,2984 
1684327438222,739,-2782,2886 
1684327438262,788,-2856,2855 
1684327438302,713,-2934,2927 
1684327438342,678,-2870,2863 
1684327438382,713,-2773,2900 
1684327438422,765,-2844,2889 
1684327438462,685,-2870,2862 
1684327438502,707,-2974,2890 
1684327438542,737,-2785,2939 
1684327438582,735,-2842,2917 
1684327438622,646,-2822,2903 
1684327438663,745,-2834,2918 
1684327438702,716,-2856,2898 
1684327438742,731,-2854,2932 
1684327438782,710,-2831,2858 
1684327438822,733,-2817,2899 
1684327438863,755,-2844,2972 
1684327438902,675,-2875,2857 
1684327438942,776,-2727,2939 
1684327438982,632,-2935,2884 
1684327439022,789,-2876,3012 
1684327439063,763,-2821,2889 
1684327439102,723,-2627,2959 
1684327439142,657,-2905,2891 
1684327439182,849,-2889,2934 
1684327439222,762,-2833,2909 
1684327439263,769,-2840,2846 
1684327439302,761,-2788,2944 
1684327439342,762,-2772,2987 
1684327439382,817,-2740,2958 
1684327439422,760,-2876,2886 
1684327439463,777,-2893,2879 
1684327439503,758,-2758,2968 
1684327439542,794,-2789,2915 
1684327439582,776,-2697,2918 
1684327439623,749,-2778,3012 
1684327439663,784,-2758,2950 
1684327439702,757,-2941,2894 
1684327439743,725,-2862,2870 
1684327439783,780,-2769,2990 
1684327439823,737,-2753,2975 
1684327439863,752,-2781,2973 
1684327439903,712,-2834,2906 
1684327439943,770,-2778,2930 
1684327439983,775,-2825,2936 
1684327440023,753,-2810,2966 
1684327440063,728,-2818,2981 
1684327440103,766,-2805,2859 
1684327440143,764,-2723,2986 
1684327440183,727,-2828,2965 
1684327440223,760,-2803,2905 
1684327440264,802,-2715,2953 
1684327440303,761,-2793,2955 
1684327440343,751,-2813,2908 
1684327440383,786,-2796,2901 
1684327440423,703,-2820,3000 
1684327440464,785,-2864,2891 
1684327440503,761,-2622,2883 
1684327440543,716,-2985,3026 
1684327440583,631,-2994,2792 
1684327440623,742,-2918,2908 
1684327440664,699,-2722,2890 
1684327440703,709,-2906,2953 
1684327440743,666,-2926,2878 
1684327440783,673,-2847,2864 
1684327440823,729,-2912,2871 
1684327440864,674,-2907,2828 
1684327440903,717,-2926,2889 
1684327440943,687,-2843,2861 
1684327440983,776,-2862,2852 
1684327441023,716,-2921,2863 
1684327441064,683,-2894,2836 
1684327441103,696,-2926,2846 
1684327441143,695,-2849,2887 
1684327441183,692,-2861,2922 
1684327441223,770,-2817,2870 
1684327441264,744,-2888,2922 
1684327441304,732,-2813,2923 
1684327441344,687,-2847,2988 
1684327441384,700,-2854,2924 
1684327441424,747,-2876,2869 
1684327441464,746,-2796,2909 
1684327441504,712,-2877,2945 
1684327441544,771,-2832,2871 
1684327441584,705,-2866,2941 
1684327441624,727,-2885,2936 
1684327441664,680,-2785,2888 
1684327441704,777,-2797,2927 
1684327441744,755,-2837,2903 
1684327441784,709,-2874,2885 
1684327441824,717,-2904,2898 
1684327441864,764,-2817,2907 
1684327441904,749,-2772,2920 
1684327441944,729,-2836,2914 
1684327441984,741,-2783,2913 
1684327442024,725,-2744,2949 
1684327442065,762,-2866,2935 
1684327442104,727,-2878,2893 
1684327442144,752,-2797,2922 
1684327442184,705,-2807,2926 
1684327442224,695,-2839,2943 
1684327442265,699,-2748,2957 
1684327442304,753,-2808,2903 
1684327442344,755,-2891,2883 
1684327442384,685,-2882,2949 
1684327442424,772,-2828,2845 
1684327442465,754,-2793,2948 
1684327442504,691,-2862,2964 
1684327442544,731,-2869,2917 
1684327442584,729,-2796,2906 
1684327442624,795,-2792,2955 
1684327442665,737,-2792,2967 
1684327442704,751,-2732,2974 
1684327442744,717,-2842,2938 
1684327442784,679,-2906,2924 
1684327442824,776,-2862,2887 
1684327442865,758,-2724,2951 
1684327442904,708,-2834,2936 
1684327442944,739,-2763,2923 
1684327442985,735,-2783,2944 
1684327443024,781,-2815,2887 
1684327443065,707,-2824,3044 
1684327443105,683,-2810,2804 
1684327443144,716,-2895,2934 
1684327443184,652,-2805,2885 
1684327443225,783,-2801,2938 
1684327443265,719,-2770,2941 
1684327443305,709,-2827,2945 
1684327443345,656,-2775,2942 
1684327443385,766,-2747,2927 
1684327443425,729,-2796,2878 
1684327443465,704,-2895,2913 
1684327443505,718,-2816,2922 
1684327443545,688,-2691,2984 
1684327443585,730,-2873,2947 
1684327443625,686,-2841,2876 
1684327443665,730,-2807,2930 
1684327443705,719,-2842,2882 
1684327443745,683,-2827,2983 
1684327443785,751,-2753,2922 
1684327443825,715,-2831,2936 
1684327443866,788,-2781,2910 
1684327443905,677,-2799,3015 
1684327443945,688,-2776,2933 
1684327443985,740,-2846,2917 
1684327444025,703,-2821,2912 
1684327444066,709,-2840,2905 
1684327444105,762,-2831,2927 
1684327444145,678,-2801,2901 
1684327444185,685,-2792,2965 
1684327444225,774,-2786,2949 
1684327444266,694,-2806,2906 
1684327444305,743,-2795,2873 
1684327444345,684,-2841,2951 
1684327444385,740,-2767,2914 
1684327444425,709,-2824,2971 
1684327444466,693,-2816,2888 
1684327444505,734,-2783,2914 
1684327444545,691,-2812,2942 
1684327444585,768,-2810,2921 
1684327444625,746,-2774,2919 
1684327444666,737,-2772,2968 
1684327444705,709,-2836,2917 
1684327444745,710,-2832,2933 
1684327444786,681,-2812,2917 
1684327444826,742,-2801,2942 
1684327444866,727,-2763,2988 
1684327444906,716,-2790,2961 
1684327444946,766,-2782,2927 
1684327444986,723,-2828,2937 
1684327445026,727,-2809,2963 
1684327445066,736,-2792,2967 
1684327445106,750,-2822,2918 
1684327445146,685,-2758,2946 
1684327445186,724,-2818,2937 
1684327445226,750,-2844,2944 
1684327445267,701,-2802,2918 
1684327445306,761,-2803,2952 
1684327445346,748,-2803,2923 
1684327445386,758,-2794,2960 
1684327445426,719,-2815,2932 
1684327445467,741,-2756,2918 
1684327445506,771,-2785,2949 
1684327445546,718,-2824,2944 
1684327445586,749,-2854,2891 
1684327445626,752,-2810,2920 
1684327445667,759,-2764,2965 
1684327445706,744,-2827,2956 
1684327445746,716,-2737,2998 
1684327445786,768,-2821,2932 
1684327445826,735,-2846,2934 
1684327445867,730,-2774,2933 
1684327445906,732,-2786,2932 
1684327445946,689,-2751,2994 
1684327445986,770,-2746,2939 
1684327446026,706,-2789,2919 
1684327446067,766,-2813,2931 
1684327446106,756,-2746,2943 
1684327446146,732,-2732,2989 
1684327446186,771,-2750,2931 
1684327446226,751,-2811,2920 
1684327446267,718,-2856,2996 
1684327446306,741,-2788,3027 
1684327446346,782,-2745,2916 
1684327446386,749,-2665,3057 
1684327446426,781,-2887,2976 
1684327446467,706,-2754,2873 
1684327446506,777,-2827,3049 
1684327446546,721,-2803,2872 
1684327446586,771,-2776,2961 
1684327446626,736,-2653,3045 
1684327446667,751,-2917,2913 
1684327446706,680,-2845,2912 
1684327446746,788,-2691,2991 
1684327446786,699,-2814,2932 
1684327446827,712,-2786,2937 
1684327446867,725,-2717,2948 
1684327446906,764,-2763,2954 
1684327446947,724,-2766,2937 
1684327446986,760,-2756,3005 
1684327447027,719,-2801,2963 
1684327447067,754,-2760,2947 
1684327447106,736,-2786,2946 
1684327447146,698,-2788,3032 
1684327447187,738,-2772,2961 
1684327447227,720,-2773,2933 
1684327447267,702,-2795,2973 
1684327447307,715,-2804,3000 
1684327447347,702,-2770,2949 
1684327447387,711,-2746,2973 
1684327447427,745,-2774,2977 
1684327447467,687,-2836,2853 
1684327447507,733,-2774,2959 
1684327447547,736,-2742,2962 
1684327447587,742,-2784,2966 
1684327447627,719,-2836,2961 
1684327447668,728,-2756,2975 
1684327447707,620,-2742,2942 
1684327447747,790,-2932,2943 
1684327447787,750,-2669,2962 
1684327447827,759,-2826,3012 
1684327447867,769,-2841,2907 
1684327447907,763,-2622,2953 
1684327447947,728,-2783,3019 
1684327447987,737,-2753,2991 
1684327448027,779,-2767,2946 
1684327448068,751,-2873,2899 
1684327448107,783,-2694,3052 
1684327448147,747,-2817,3033 
1684327448187,722,-2840,2990 
1684327448227,763,-2726,2990 
1684327448268,777,-2798,2935 
1684327448307,678,-2863,2957 
1684327448347,735,-2822,2911 
1684327448387,776,-2677,2993 
1684327448427,769,-2727,2984 
1684327448468,677,-2853,2951 
1684327448507,726,-2842,2944 
1684327448547,727,-2749,2940 
1684327448587,715,-2708,2974 
1684327448627,713,-2782,2967 
1684327448668,703,-2773,2978 
1684327448707,806,-2750,2931 
1684327448747,687,-2877,2866 
1684327448787,688,-2850,2961 
1684327448827,761,-2725,2931 
1684327448868,687,-2777,3015 
1684327448907,756,-2842,2956 
1684327448947,680,-2810,2944 
1684327448987,757,-2753,2948 
1684327449027,754,-2804,2904 
1684327449068,749,-2856,2880 
1684327449107,712,-2801,2891 
1684327449147,769,-2731,2970 
1684327449187,727,-2746,3014 
1684327449227,683,-2837,2958 
1684327449268,731,-2789,2880 
1684327449307,804,-2846,2880 
1684327449348,735,-2807,2911 
1684327449387,740,-2826,2935 
1684327449428,706,-2745,2951 
1684327449468,773,-2792,2900 
1684327449508,714,-2864,2924 
1684327449548,744,-2801,2906 
1684327449588,734,-2849,2911 
1684327449628,747,-2808,2962 
1684327449668,737,-2751,3009 
1684327449708,791,-2787,2915 
1684327449748,724,-2830,2917 
1684327449788,729,-2799,2959 
1684327449828,755,-2751,3009 
1684327449868,728,-2832,2890 
1684327449908,785,-2785,2894 
1684327449948,750,-2831,2924 
1684327449988,682,-2844,2962 
1684327450028,708,-2780,2925 
1684327450069,745,-2815,2920 
1684327450108,800,-2822,2906 
1684327450148,624,-2820,2883 
1684327450188,788,-2731,2968 
1684327450228,783,-2696,2989 
1684327450269,746,-2818,2961 
1684327450308,765,-2875,2947 
1684327450348,738,-2771,2946 
1684327450388,793,-2756,2972 
1684327450428,782,-2772,2961 
1684327450469,724,-2778,2949 
1684327450508,771,-2845,2925 
1684327450548,722,-2986,2878 
1684327450588,720,-2850,2866 
1684327450628,777,-2735,2960 
1684327450669,781,-2546,3047 
1684327450708,753,-2895,2869 
1684327450748,688,-2857,2976 
1684327450788,831,-2886,2945 
1684327450828,686,-2736,2898 
1684327450869,765,-2715,3003 
1684327450909,711,-2763,3001 
1684327450948,736,-2813,2898 
1684327450988,812,-2747,2930 
1684327451029,760,-2827,2933 
1684327451069,757,-2803,2996 
1684327451108,777,-2536,3072 
1684327451149,760,-2848,3018 
1684327451189,710,-2901,2888 
1684327451229,819,-2707,2906 
1684327451269,761,-2650,3031 
1684327451309,692,-2750,2986 
1684327451349,753,-2746,2894 
1684327451389,741,-2836,2912 
1684327451429,715,-2804,2970 
1684327451469,797,-2773,2938 
1684327451509,720,-2702,3008 
1684327451549,706,-2819,2949 
1684327451589,796,-2750,2972 
1684327451629,769,-2712,2959 
1684327451670,751,-2805,2991 
1684327451709,798,-2745,2948 
1684327451749,738,-2740,2968 
1684327451789,723,-2835,2988 
1684327451829,782,-2716,2948 
1684327451870,771,-2772,2965 
1684327451909,718,-2764,2980 
1684327451949,827,-2749,2962 
1684327451989,728,-2780,2935 
1684327452029,769,-2796,2964 
1684327452070,785,-2729,2981 
1684327452109,690,-2755,2995 
1684327452149,823,-2756,2960 
1684327452189,768,-2692,2961 
1684327452229,744,-2801,2993 
1684327452270,712,-2825,2916 
1684327452309,793,-2723,2968 
1684327452349,794,-2788,3006 
1684327452389,691,-2831,2944 
1684327452429,746,-2713,2949 
1684327452470,751,-2749,2982 
1684327452509,737,-2828,2938 
1684327452549,796,-2705,2980 
1684327452590,779,-2808,2996 
1684327452629,708,-2777,2963 
1684327452670,760,-2753,2980 
1684327452710,800,-2783,2955 
1684327452750,778,-2779,2964 
1684327452790,735,-2759,2978 
1684327452830,755,-2813,2942 
1684327452870,743,-2719,2929 
1684327452910,776,-2798,2923 
1684327452950,782,-2800,2951 
1684327452990,727,-2757,2945 
1684327453030,735,-2741,3021 
1684327453071,752,-2773,2953 
1684327453110,695,-2808,2965 
1684327453150,766,-2773,2881 
1684327453190,781,-2726,2959 
1684327453230,709,-2798,2936 
1684327453271,687,-2808,2936 
1684327453310,758,-2864,2931 
1684327453350,744,-2822,2904 
1684327453390,728,-2786,2951 
1684327453430,760,-2760,2941 
1684327453471,715,-2823,2977 
1684327453510,775,-2786,2938 
1684327453550,715,-2741,2936 
1684327453590,767,-2787,2926 
1684327453630,747,-2754,2948 
1684327453671,727,-2863,2917 
1684327453710,729,-2826,2984 
1684327453750,723,-2798,2952 
1684327453790,809,-2842,2908 
1684327453830,661,-2816,2935 
1684327453871,778,-2736,2980 
1684327453910,758,-2788,2966 
1684327453950,708,-2864,2886 
1684327453990,803,-2798,2908 
1684327454030,728,-2803,2956 
1684327454071,722,-2827,2961 
1684327454110,700,-2824,2935 
1684327454151,726,-2852,2908 
1684327454190,774,-2786,2949 
1684327454230,717,-2764,2931 
1684327454271,768,-2812,2959 
1684327454311,708,-2831,2932 
1684327454350,720,-2744,2968 
1684327454391,773,-2761,2928 
1684327454431,735,-2817,2923 
1684327454471,713,-2834,2933 
1684327454511,769,-2773,2956 
1684327454551,746,-2742,2945 
1684327454591,744,-2759,2982 
1684327454631,717,-2819,2944 
1684327454671,749,-2814,2947 
1684327454711,732,-2758,2942 
1684327454751,769,-2689,2986 
1684327454791,725,-2877,2993 
1684327454831,714,-2814,2869 
1684327454872,771,-2793,2949 
1684327454911,689,-2741,2933 
1684327454951,782,-2727,3008 
1684327454991,715,-2776,2956 
1684327455031,780,-2835,2895 
1684327455072,748,-2813,2926 
1684327455111,723,-2792,2928 
1684327455151,684,-2736,2961 
1684327455191,725,-2634,2865 
1684327455231,659,-2934,2877 
1684327455272,717,-2879,2906 
1684327455311,724,-2607,3005 
1684327455351,679,-2732,3014 
1684327455391,695,-2811,2961 
1684327455431,709,-2748,2951 
1684327455472,710,-2808,2937 
1684327455511,700,-2776,2979 
1684327455551,756,-2721,2964 
1684327455591,703,-2766,2954 
1684327455631,664,-2846,2963 
1684327455672,711,-2755,2957 
1684327455711,727,-2738,2941 
1684327455751,719,-2821,2974 
1684327455791,704,-2786,3000 
1684327455831,720,-2783,2951 
1684327455872,711,-2726,2911 
1684327455911,724,-2789,3012 
1684327455952,711,-2776,2988 
1684327455992,742,-2772,2919 
1684327456031,677,-2762,2971 
1684327456072,744,-2766,3010 
1684327456112,725,-2834,2958 
1684327456152,727,-2760,2987 
1684327456192,707,-2729,3036 
1684327456232,705,-2842,2953 
1684327456272,746,-2788,2925 
1684327456312,758,-2731,2943 
1684327456352,691,-2822,2979 
1684327456392,700,-2797,2961 
1684327456432,739,-2825,2960 
1684327456472,668,-2799,2949 
1684327456512,745,-2797,2949 
1684327456552,726,-2777,2922 
1684327456592,682,-2833,2935 
1684327456632,704,-2834,2924 
1684327456673,699,-2789,2936 
1684327456712,711,-2764,2942 
1684327456752,712,-2790,2974 
1684327456792,710,-2786,2913 
1684327456832,725,-2769,2971 
1684327456873,689,-2812,2967 
1684327456912,681,-2870,2917 
1684327456952,677,-2831,2877 
1684327456992,785,-2703,2955 
1684327457032,735,-2786,2943 
1684327457073,689,-2823,2970 
1684327457112,701,-2817,2960 
1684327457152,716,-2812,2931 
1684327457192,706,-2789,2925 
1684327457232,711,-2841,2960 
1684327457273,712,-2778,2957 
1684327457312,766,-2775,2948 
1684327457352,675,-2787,2953 
1684327457392,754,-2787,2975 
1684327457432,688,-2766,2981 
1684327457473,727,-2770,2978 
1684327457513,717,-2790,2957 
1684327457552,724,-2781,2956 
1684327457592,713,-2774,2933 
1684327457633,732,-2778,2966 
1684327457673,733,-2820,2935 
1684327457713,684,-2763,2990 
1684327457753,751,-2781,2987 
1684327457793,674,-2843,2929 
1684327457833,742,-2763,2921 
1684327457874,757,-2719,2997 
1684327457913,700,-2795,2938 
1684327457953,706,-2782,2933 
1684327457993,727,-2776,2950 
1684327458033,721,-2772,2967 
1684327458073,752,-2802,2985 
1684327458113,723,-2761,2971 
1684327458153,723,-2803,2955 
1684327458193,721,-2794,2970 
1684327458233,784,-2738,2967 
1684327458274,693,-2797,2927 
1684327458313,711,-2833,2890 
1684327458353,747,-2727,2979 
1684327458393,735,-2808,3002 
1684327458433,773,-2771,2943 
1684327458474,773,-2751,2942 
1684327458513,789,-2786,3034 
1684327458553,686,-2839,3022 
1684327458593,830,-2710,2976 
1684327458633,817,-2654,2899 
1684327458674,841,-2750,2953 
1684327458713,733,-2815,3023 
1684327458753,760,-2785,2949 
1684327458793,894,-2601,2968 
1684327458833,784,-2762,3020 
1684327458874,755,-2871,2970 
1684327458913,731,-2775,2943 
1684327458953,843,-2733,3130 
1684327458993,681,-2821,2994 
1684327459033,824,-2674,2916 
1684327459074,892,-2686,2963 
1684327459113,776,-2848,2858 
1684327459153,843,-2705,2956 
1684327459194,772,-2799,3090 
1684327459233,795,-2757,2880 
1684327459274,848,-2692,2962 
1684327459314,805,-2742,2960 
1684327459354,741,-2787,3096 
1684327459394,749,-2780,2902 
1684327459434,743,-2854,2915 
1684327459474,752,-2963,2882 
1684327459514,661,-2812,2999 
1684327459554,739,-2504,3055 
1684327459594,796,-2936,3042 
1684327459634,649,-3038,2780 
1684327459675,784,-2692,2986 
1684327459714,763,-2740,2995 
1684327459754,593,-2858,3043 
1684327459795,761,-2734,2990 
1684327459835,684,-2880,2937 
1684327459876,805,-2775,2934 
1684327459915,862,-2578,2937 
1684327459955,851,-2819,2980 
1684327459995,730,-2938,3004 
1684327460035,791,-2576,2954 
1684327460076,838,-2659,3033 
1684327460115,708,-2884,2916 
1684327460155,824,-2819,2933 
1684327460195,824,-2631,2932 
1684327460235,825,-2755,2896 
1684327460276,790,-2755,2999 
1684327460315,775,-2801,2941 
1684327460355,809,-2762,2943 
1684327460395,717,-2835,2944 
1684327460435,702,-2792,3001 
1684327460476,799,-2723,2967 
1684327460515,776,-2798,3034 
1684327460555,799,-2795,2911 
1684327460595,818,-2710,2976 
1684327460635,762,-2795,2920 
1684327460676,761,-2800,2956 
1684327460715,746,-2745,2967 
1684327460756,731,-2790,2923 
1684327460795,791,-2774,2963 
1684327460835,748,-2776,2949 
1684327460876,724,-2847,2948 
1684327460915,748,-2767,2983 
1684327460955,815,-2758,2963 
1684327460996,776,-2816,2950 
1684327461035,752,-2820,2953 
1684327461076,732,-2778,2934 
1684327461116,728,-2771,2952 
1684327461156,742,-2825,2930 
1684327461196,730,-2833,2947 
1684327461236,743,-2756,2940 
1684327461276,774,-2713,2949 
1684327461316,690,-2841,2958 
1684327461356,737,-2819,2941 
1684327461396,762,-2759,2964 
1684327461436,728,-2821,2905 
1684327461477,776,-2776,2953 
1684327461516,697,-2818,2954 
1684327461556,806,-2782,2924 
1684327461596,729,-2807,2947 
1684327461636,737,-2811,2929 
1684327461677,738,-2834,2954 
1684327461716,703,-2806,2949 
1684327461756,724,-2802,2920 
1684327461796,720,-2806,2921 
1684327461836,750,-2802,2943 
1684327461877,694,-2773,2968 
1684327461916,749,-2854,2866 
1684327461956,676,-2865,2934 
1684327461996,778,-2719,2950 
1684327462036,688,-2825,2944 
1684327462077,765,-2850,2899 
1684327462116,738,-2764,2959 
1684327462156,662,-2792,2942 
1684327462196,726,-2901,2854 
1684327462236,710,-2950,3032 
1684327462277,796,-2745,2934 
1684327462316,737,-2594,3051 
1684327462356,734,-2886,2917 
1684327462396,722,-2952,3049 
1684327462437,681,-2787,2855 
1684327462477,806,-2791,2949 
1684327462516,846,-2763,2935 
1684327462557,898,-2772,2893 
1684327462597,686,-2978,2950 
1684327462637,675,-2906,2938 
1684327462677,857,-2745,2874 
1684327462717,773,-2813,3024 
1684327462757,784,-2828,2944 
1684327462797,730,-2972,2892 
1684327462837,802,-2807,2849 
1684327462877,835,-2738,3047 
1684327462917,727,-2780,2840 
1684327462957,779,-2897,2946 
1684327462997,810,-2699,2829 
